<?xml version="1.0" encoding="ISO-8859-1" ?>
<?xml-stylesheet type="text/xsl" href="UTIL/XSL/cp01_contents_noframes.xsl"?>
<!-- **************************************************************** -->
<!-- File: define.xml                                                 -->
<!-- Date: 20DEC07    11:25                                       -->
<!-- Author: C037083                                                  -->
<!-- Description: This the define.xml which implements the Case       -->
<!--  Report Tabulation Data Definition Specification Version 1.0.0   -->
<!-- **************************************************************** -->
<ODM   xmlns="http://www.cdisc.org/ns/odm/v1.3"
 xmlns:xsi="http://www.w3.org/2001/XMLSchema-instance"
 xmlns:xlink="http://www.w3.org/1999/xlink"
 xmlns:crt="http://www.cdisc.org/ns/crt/v3.1.1"
 xmlns:sdtm="http://www.cdisc.org/ns/sdtm/v3.1.1"
 xmlns:cp01="http://www.cdisc.org/ns/pilot/1.0"
 xsi:schemaLocation="http://www.cdisc.org/ns/odm/v1.3 UTIL/cp01.xsd"
 ODMVersion="1.3"
 FileOID="CDISC SDTM Pilot Define"
 FileType="Snapshot"
 CreationDateTime="2007-12-20T11:25:43"
 AsOfDateTime="2007-12-20T11:22:00"
>
<Study OID="CDISC_Pilot">
<GlobalVariables>
 <StudyName>CDISC_Pilot</StudyName>
 <StudyDescription>SDTM data sets</StudyDescription>
 <ProtocolName>CDISCPILOT01</ProtocolName>
</GlobalVariables>
<MetaDataVersion OID="CDISC.SDTM.3.1.0" 
Name="CDISC_Pilot, Data Definitions" 
Description="Study CDISC_Pilot, Data Definitions" 
crt:DefineVersion="1.0.0" 
crt:StandardName="CDISC SDTM" 
crt:StandardVersion="3.1.1" >
<crt:AnnotatedCRF>
 <crt:DocumentRef leafID="blankcrf" />
</crt:AnnotatedCRF>
<crt:leaf ID="blankcrf" xlink:href="../tabulations/blankcrf.pdf">
 <crt:title>Annotated Case Report Form</crt:title>
</crt:leaf>
 
        <crt:leaf ID="ReviewerGuide" xlink:href="../../../../m1/us/12-cov-let/cover.pdf#page=3">
          <crt:title>Reviewer's Guide</crt:title>
        </crt:leaf>
        <crt:leaf ID="ARM-Leaf0001" xlink:href="../../../53-clin-stud-rep/535-rep-effic-safety-stud/5351-stud-rep-contr/cdiscpilot01/cdiscpilot01.pdf#nameddest=OUT_TBL_14.1.01">
          <crt:title>Table 14-1.01</crt:title>
        </crt:leaf>
        <crt:leaf ID="ARM-Leaf0002" xlink:href="../../../53-clin-stud-rep/535-rep-effic-safety-stud/5351-stud-rep-contr/cdiscpilot01/cdiscpilot01.pdf#nameddest=SAP_SEC_9.1">
          <crt:title>SAP Section 9.1</crt:title>
        </crt:leaf>
        <crt:leaf ID="ARM-Leaf0003" xlink:href="../../../53-clin-stud-rep/535-rep-effic-safety-stud/5351-stud-rep-contr/cdiscpilot01/cdiscpilot01.pdf#nameddest=SAP_TEMP_1">
          <crt:title>SAP Template 1</crt:title>
        </crt:leaf>
        <crt:leaf ID="ARM-Leaf0004" xlink:href="../../../53-clin-stud-rep/535-rep-effic-safety-stud/5351-stud-rep-contr/cdiscpilot01/cdiscpilot01.pdf#nameddest=OUT_TBL_14.1.02">
          <crt:title>Table 14-1.02</crt:title>
        </crt:leaf>
        <crt:leaf ID="ARM-Leaf0005" xlink:href="../../../53-clin-stud-rep/535-rep-effic-safety-stud/5351-stud-rep-contr/cdiscpilot01/cdiscpilot01.pdf#nameddest=SAP_SEC_9.1">
          <crt:title>SAP Section 9.1</crt:title>
        </crt:leaf>
        <crt:leaf ID="ARM-Leaf0006" xlink:href="../../../53-clin-stud-rep/535-rep-effic-safety-stud/5351-stud-rep-contr/cdiscpilot01/cdiscpilot01.pdf#nameddest=SAP_TEMP_2">
          <crt:title>SAP Template 2</crt:title>
        </crt:leaf>
        <crt:leaf ID="ARM-Leaf0007" xlink:href="../../../53-clin-stud-rep/535-rep-effic-safety-stud/5351-stud-rep-contr/cdiscpilot01/cdiscpilot01.pdf#nameddest=OUT_TBL_14.1.03">
          <crt:title>Table 14-1.03</crt:title>
        </crt:leaf>
        <crt:leaf ID="ARM-Leaf0008" xlink:href="../../../53-clin-stud-rep/535-rep-effic-safety-stud/5351-stud-rep-contr/cdiscpilot01/cdiscpilot01.pdf#nameddest=SAP_TEMP_4">
          <crt:title>SAP Template 4</crt:title>
        </crt:leaf>
        <crt:leaf ID="ARM-Leaf0009" xlink:href="../../../53-clin-stud-rep/535-rep-effic-safety-stud/5351-stud-rep-contr/cdiscpilot01/cdiscpilot01.pdf#nameddest=OUT_TBL_14.2.01">
          <crt:title>Table 14-2.01</crt:title>
        </crt:leaf>
        <crt:leaf ID="ARM-Leaf0010" xlink:href="../../../53-clin-stud-rep/535-rep-effic-safety-stud/5351-stud-rep-contr/cdiscpilot01/cdiscpilot01.pdf#nameddest=SAP_SEC_9.2">
          <crt:title>SAP Section 9.2</crt:title>
        </crt:leaf>
        <crt:leaf ID="ARM-Leaf0011" xlink:href="../../../53-clin-stud-rep/535-rep-effic-safety-stud/5351-stud-rep-contr/cdiscpilot01/cdiscpilot01.pdf#nameddest=SAP_TEMP_3">
          <crt:title>SAP Template 3</crt:title>
        </crt:leaf>
        <crt:leaf ID="ARM-Leaf0012" xlink:href="../../../53-clin-stud-rep/535-rep-effic-safety-stud/5351-stud-rep-contr/cdiscpilot01/cdiscpilot01.pdf#nameddest=OUT_TBL_14.3.01">
          <crt:title>Table 14-3.01</crt:title>
        </crt:leaf>
        <crt:leaf ID="ARM-Leaf0013" xlink:href="../../../53-clin-stud-rep/535-rep-effic-safety-stud/5351-stud-rep-contr/cdiscpilot01/cdiscpilot01.pdf#nameddest=SAP_SEC_10.1.1">
          <crt:title>SAP Section 10.1.1</crt:title>
        </crt:leaf>
        <crt:leaf ID="ARM-Leaf0014" xlink:href="../../../53-clin-stud-rep/535-rep-effic-safety-stud/5351-stud-rep-contr/cdiscpilot01/cdiscpilot01.pdf#nameddest=SAP_TEMP_5">
          <crt:title>SAP Template 5</crt:title>
        </crt:leaf>
        <crt:leaf ID="ARM-Leaf0015" xlink:href="../../../53-clin-stud-rep/535-rep-effic-safety-stud/5351-stud-rep-contr/cdiscpilot01/cdiscpilot01.pdf#nameddest=OUT_TBL_14.3.02">
          <crt:title>Table 14-3.02</crt:title>
        </crt:leaf>
        <crt:leaf ID="ARM-Leaf0016" xlink:href="../../../53-clin-stud-rep/535-rep-effic-safety-stud/5351-stud-rep-contr/cdiscpilot01/cdiscpilot01.pdf#nameddest=SAP_SEC_10.1.2">
          <crt:title>SAP Section 10.1.2</crt:title>
        </crt:leaf>
        <crt:leaf ID="ARM-Leaf0017" xlink:href="../../../53-clin-stud-rep/535-rep-effic-safety-stud/5351-stud-rep-contr/cdiscpilot01/cdiscpilot01.pdf#nameddest=SAP_TEMP_6">
          <crt:title>SAP Template 6</crt:title>
        </crt:leaf>
        <crt:leaf ID="ARM-Leaf0018" xlink:href="../../../53-clin-stud-rep/535-rep-effic-safety-stud/5351-stud-rep-contr/cdiscpilot01/cdiscpilot01.pdf#nameddest=OUT_TBL_14.3.03">
          <crt:title>Table 14-3.03</crt:title>
        </crt:leaf>
        <crt:leaf ID="ARM-Leaf0019" xlink:href="../../../53-clin-stud-rep/535-rep-effic-safety-stud/5351-stud-rep-contr/cdiscpilot01/cdiscpilot01.pdf#nameddest=SAP_SEC_10.1.1">
          <crt:title>SAP Section 10.1.1</crt:title>
        </crt:leaf>
        <crt:leaf ID="ARM-Leaf0020" xlink:href="../../../53-clin-stud-rep/535-rep-effic-safety-stud/5351-stud-rep-contr/cdiscpilot01/cdiscpilot01.pdf#nameddest=SAP_TEMP_5">
          <crt:title>SAP Template 5</crt:title>
        </crt:leaf>
        <crt:leaf ID="ARM-Leaf0021" xlink:href="../../../53-clin-stud-rep/535-rep-effic-safety-stud/5351-stud-rep-contr/cdiscpilot01/cdiscpilot01.pdf#nameddest=OUT_TBL_14.3.04">
          <crt:title>Table 14-3.04</crt:title>
        </crt:leaf>
        <crt:leaf ID="ARM-Leaf0022" xlink:href="../../../53-clin-stud-rep/535-rep-effic-safety-stud/5351-stud-rep-contr/cdiscpilot01/cdiscpilot01.pdf#nameddest=SAP_SEC_10.1.2">
          <crt:title>SAP Section 10.1.2</crt:title>
        </crt:leaf>
        <crt:leaf ID="ARM-Leaf0023" xlink:href="../../../53-clin-stud-rep/535-rep-effic-safety-stud/5351-stud-rep-contr/cdiscpilot01/cdiscpilot01.pdf#nameddest=SAP_TEMP_6">
          <crt:title>SAP Template 6</crt:title>
        </crt:leaf>
        <crt:leaf ID="ARM-Leaf0024" xlink:href="../../../53-clin-stud-rep/535-rep-effic-safety-stud/5351-stud-rep-contr/cdiscpilot01/cdiscpilot01.pdf#nameddest=OUT_TBL_14.3.05">
          <crt:title>Table 14-3.05</crt:title>
        </crt:leaf>
        <crt:leaf ID="ARM-Leaf0025" xlink:href="../../../53-clin-stud-rep/535-rep-effic-safety-stud/5351-stud-rep-contr/cdiscpilot01/cdiscpilot01.pdf#nameddest=SAP_SEC_10.1.1">
          <crt:title>SAP Section 10.1.1</crt:title>
        </crt:leaf>
        <crt:leaf ID="ARM-Leaf0026" xlink:href="../../../53-clin-stud-rep/535-rep-effic-safety-stud/5351-stud-rep-contr/cdiscpilot01/cdiscpilot01.pdf#nameddest=SAP_TEMP_5">
          <crt:title>SAP Template 5</crt:title>
        </crt:leaf>
        <crt:leaf ID="ARM-Leaf0027" xlink:href="../../../53-clin-stud-rep/535-rep-effic-safety-stud/5351-stud-rep-contr/cdiscpilot01/cdiscpilot01.pdf#nameddest=OUT_TBL_14.3.06">
          <crt:title>Table 14-3.06</crt:title>
        </crt:leaf>
        <crt:leaf ID="ARM-Leaf0028" xlink:href="../../../53-clin-stud-rep/535-rep-effic-safety-stud/5351-stud-rep-contr/cdiscpilot01/cdiscpilot01.pdf#nameddest=SAP_SEC_10.1.2">
          <crt:title>SAP Section 10.1.2</crt:title>
        </crt:leaf>
        <crt:leaf ID="ARM-Leaf0029" xlink:href="../../../53-clin-stud-rep/535-rep-effic-safety-stud/5351-stud-rep-contr/cdiscpilot01/cdiscpilot01.pdf#nameddest=SAP_TEMP_6">
          <crt:title>SAP Template 6</crt:title>
        </crt:leaf>
        <crt:leaf ID="ARM-Leaf0030" xlink:href="../../../53-clin-stud-rep/535-rep-effic-safety-stud/5351-stud-rep-contr/cdiscpilot01/cdiscpilot01.pdf#nameddest=OUT_TBL_14.3.07">
          <crt:title>Table 14-3.07</crt:title>
        </crt:leaf>
        <crt:leaf ID="ARM-Leaf0031" xlink:href="../../../53-clin-stud-rep/535-rep-effic-safety-stud/5351-stud-rep-contr/cdiscpilot01/cdiscpilot01.pdf#nameddest=SAP_SEC_10.1.1">
          <crt:title>SAP Section 10.1.1</crt:title>
        </crt:leaf>
        <crt:leaf ID="ARM-Leaf0032" xlink:href="../../../53-clin-stud-rep/535-rep-effic-safety-stud/5351-stud-rep-contr/cdiscpilot01/cdiscpilot01.pdf#nameddest=SAP_TEMP_7">
          <crt:title>SAP Template 7</crt:title>
        </crt:leaf>
        <crt:leaf ID="ARM-Leaf0033" xlink:href="../../../53-clin-stud-rep/535-rep-effic-safety-stud/5351-stud-rep-contr/cdiscpilot01/cdiscpilot01.pdf#nameddest=OUT_TBL_14.3.08">
          <crt:title>Table 14-3.08</crt:title>
        </crt:leaf>
        <crt:leaf ID="ARM-Leaf0034" xlink:href="../../../53-clin-stud-rep/535-rep-effic-safety-stud/5351-stud-rep-contr/cdiscpilot01/cdiscpilot01.pdf#nameddest=SAP_SEC_7.2">
          <crt:title>SAP Section 7.2</crt:title>
        </crt:leaf>
        <crt:leaf ID="ARM-Leaf0035" xlink:href="../../../53-clin-stud-rep/535-rep-effic-safety-stud/5351-stud-rep-contr/cdiscpilot01/cdiscpilot01.pdf#nameddest=SAP_SEC_10.1.1">
          <crt:title>SAP Section 10.1.1</crt:title>
        </crt:leaf>
        <crt:leaf ID="ARM-Leaf0036" xlink:href="../../../53-clin-stud-rep/535-rep-effic-safety-stud/5351-stud-rep-contr/cdiscpilot01/cdiscpilot01.pdf#nameddest=SAP_TEMP_8">
          <crt:title>SAP Template 8</crt:title>
        </crt:leaf>
        <crt:leaf ID="ARM-Leaf0037" xlink:href="../../../53-clin-stud-rep/535-rep-effic-safety-stud/5351-stud-rep-contr/cdiscpilot01/cdiscpilot01.pdf#nameddest=OUT_TBL_14.3.09">
          <crt:title>Table 14-3.09</crt:title>
        </crt:leaf>
        <crt:leaf ID="ARM-Leaf0038" xlink:href="../../../53-clin-stud-rep/535-rep-effic-safety-stud/5351-stud-rep-contr/cdiscpilot01/cdiscpilot01.pdf#nameddest=SAP_SEC_7.2">
          <crt:title>SAP Section 7.2</crt:title>
        </crt:leaf>
        <crt:leaf ID="ARM-Leaf0039" xlink:href="../../../53-clin-stud-rep/535-rep-effic-safety-stud/5351-stud-rep-contr/cdiscpilot01/cdiscpilot01.pdf#nameddest=SAP_SEC_10.1.1">
          <crt:title>SAP Section 10.1.1</crt:title>
        </crt:leaf>
        <crt:leaf ID="ARM-Leaf0040" xlink:href="../../../53-clin-stud-rep/535-rep-effic-safety-stud/5351-stud-rep-contr/cdiscpilot01/cdiscpilot01.pdf#nameddest=SAP_TEMP_8">
          <crt:title>SAP Template 8</crt:title>
        </crt:leaf>
        <crt:leaf ID="ARM-Leaf0041" xlink:href="../../../53-clin-stud-rep/535-rep-effic-safety-stud/5351-stud-rep-contr/cdiscpilot01/cdiscpilot01.pdf#nameddest=OUT_TBL_14.3.10">
          <crt:title>Table 14-3.10</crt:title>
        </crt:leaf>
        <crt:leaf ID="ARM-Leaf0042" xlink:href="../../../53-clin-stud-rep/535-rep-effic-safety-stud/5351-stud-rep-contr/cdiscpilot01/cdiscpilot01.pdf#nameddest=SAP_SEC_10.1.1">
          <crt:title>SAP Section 10.1.1</crt:title>
        </crt:leaf>
        <crt:leaf ID="ARM-Leaf0043" xlink:href="../../../53-clin-stud-rep/535-rep-effic-safety-stud/5351-stud-rep-contr/cdiscpilot01/cdiscpilot01.pdf#nameddest=SAP_TEMP_9">
          <crt:title>SAP Template 9</crt:title>
        </crt:leaf>
        <crt:leaf ID="ARM-Leaf0044" xlink:href="../../../53-clin-stud-rep/535-rep-effic-safety-stud/5351-stud-rep-contr/cdiscpilot01/cdiscpilot01.pdf#nameddest=OUT_TBL_14.3.11">
          <crt:title>Table 14-3.11</crt:title>
        </crt:leaf>
        <crt:leaf ID="ARM-Leaf0045" xlink:href="../../../53-clin-stud-rep/535-rep-effic-safety-stud/5351-stud-rep-contr/cdiscpilot01/cdiscpilot01.pdf#nameddest=SAP_SEC_10.1.1">
          <crt:title>SAP Section 10.1.1</crt:title>
        </crt:leaf>
        <crt:leaf ID="ARM-Leaf0046" xlink:href="../../../53-clin-stud-rep/535-rep-effic-safety-stud/5351-stud-rep-contr/cdiscpilot01/cdiscpilot01.pdf#nameddest=SAP_TEMP_10">
          <crt:title>SAP Template 10</crt:title>
        </crt:leaf>
        <crt:leaf ID="ARM-Leaf0047" xlink:href="../../../53-clin-stud-rep/535-rep-effic-safety-stud/5351-stud-rep-contr/cdiscpilot01/cdiscpilot01.pdf#nameddest=OUT_TBL_14.3.12">
          <crt:title>Table 14-3.12</crt:title>
        </crt:leaf>
        <crt:leaf ID="ARM-Leaf0048" xlink:href="../../../53-clin-stud-rep/535-rep-effic-safety-stud/5351-stud-rep-contr/cdiscpilot01/cdiscpilot01.pdf#nameddest=SAP_SEC_10.2.1">
          <crt:title>SAP Section 10.2.1</crt:title>
        </crt:leaf>
        <crt:leaf ID="ARM-Leaf0049" xlink:href="../../../53-clin-stud-rep/535-rep-effic-safety-stud/5351-stud-rep-contr/cdiscpilot01/cdiscpilot01.pdf#nameddest=SAP_TEMP_11">
          <crt:title>SAP Template 11</crt:title>
        </crt:leaf>
        <crt:leaf ID="ARM-Leaf0050" xlink:href="../../../53-clin-stud-rep/535-rep-effic-safety-stud/5351-stud-rep-contr/cdiscpilot01/cdiscpilot01.pdf#nameddest=OUT_TBL_14.3.13">
          <crt:title>Table 14-3.13</crt:title>
        </crt:leaf>
        <crt:leaf ID="ARM-Leaf0051" xlink:href="../../../53-clin-stud-rep/535-rep-effic-safety-stud/5351-stud-rep-contr/cdiscpilot01/cdiscpilot01.pdf#nameddest=SAP_SEC_16.1">
          <crt:title>SAP Section 16.1</crt:title>
        </crt:leaf>
        <crt:leaf ID="ARM-Leaf0052" xlink:href="../../../53-clin-stud-rep/535-rep-effic-safety-stud/5351-stud-rep-contr/cdiscpilot01/cdiscpilot01.pdf#nameddest=SAP_TEMP_AH1">
          <crt:title>SAP Template AH1</crt:title>
        </crt:leaf>
        <crt:leaf ID="ARM-Leaf0053" xlink:href="../../../53-clin-stud-rep/535-rep-effic-safety-stud/5351-stud-rep-contr/cdiscpilot01/cdiscpilot01.pdf#nameddest=OUT_TBL_14.4.01">
          <crt:title>Table 14-4.01</crt:title>
        </crt:leaf>
        <crt:leaf ID="ARM-Leaf0054" xlink:href="../../../53-clin-stud-rep/535-rep-effic-safety-stud/5351-stud-rep-contr/cdiscpilot01/cdiscpilot01.pdf#nameddest=SAP_SEC_11.1">
          <crt:title>SAP Section 11.1</crt:title>
        </crt:leaf>
        <crt:leaf ID="ARM-Leaf0055" xlink:href="../../../53-clin-stud-rep/535-rep-effic-safety-stud/5351-stud-rep-contr/cdiscpilot01/cdiscpilot01.pdf#nameddest=SAP_TEMP_12">
          <crt:title>SAP Template 12</crt:title>
        </crt:leaf>
        <crt:leaf ID="ARM-Leaf0056" xlink:href="../../../53-clin-stud-rep/535-rep-effic-safety-stud/5351-stud-rep-contr/cdiscpilot01/cdiscpilot01.pdf#nameddest=OUT_TBL_14.5.01">
          <crt:title>Table 14-5.01</crt:title>
        </crt:leaf>
        <crt:leaf ID="ARM-Leaf0057" xlink:href="../../../53-clin-stud-rep/535-rep-effic-safety-stud/5351-stud-rep-contr/cdiscpilot01/cdiscpilot01.pdf#nameddest=SAP_SEC_11.2">
          <crt:title>SAP Section 11.2</crt:title>
        </crt:leaf>
        <crt:leaf ID="ARM-Leaf0058" xlink:href="../../../53-clin-stud-rep/535-rep-effic-safety-stud/5351-stud-rep-contr/cdiscpilot01/cdiscpilot01.pdf#nameddest=SAP_TEMP_13">
          <crt:title>SAP Template 13</crt:title>
        </crt:leaf>
        <crt:leaf ID="ARM-Leaf0059" xlink:href="../../../53-clin-stud-rep/535-rep-effic-safety-stud/5351-stud-rep-contr/cdiscpilot01/cdiscpilot01.pdf#nameddest=OUT_TBL_14.5.02">
          <crt:title>Table 14-5.02</crt:title>
        </crt:leaf>
        <crt:leaf ID="ARM-Leaf0060" xlink:href="../../../53-clin-stud-rep/535-rep-effic-safety-stud/5351-stud-rep-contr/cdiscpilot01/cdiscpilot01.pdf#nameddest=SAP_SEC_11.3">
          <crt:title>SAP Section 11.3</crt:title>
        </crt:leaf>
        <crt:leaf ID="ARM-Leaf0061" xlink:href="../../../53-clin-stud-rep/535-rep-effic-safety-stud/5351-stud-rep-contr/cdiscpilot01/cdiscpilot01.pdf#nameddest=SAP_TEMP_14">
          <crt:title>SAP Template 14</crt:title>
        </crt:leaf>
        <crt:leaf ID="ARM-Leaf0062" xlink:href="../../../53-clin-stud-rep/535-rep-effic-safety-stud/5351-stud-rep-contr/cdiscpilot01/cdiscpilot01.pdf#nameddest=OUT_TBL_14.6.01">
          <crt:title>Table 14-6.01</crt:title>
        </crt:leaf>
        <crt:leaf ID="ARM-Leaf0063" xlink:href="../../../53-clin-stud-rep/535-rep-effic-safety-stud/5351-stud-rep-contr/cdiscpilot01/cdiscpilot01.pdf#nameddest=SAP_SEC_11.5">
          <crt:title>SAP Section 11.5</crt:title>
        </crt:leaf>
        <crt:leaf ID="ARM-Leaf0064" xlink:href="../../../53-clin-stud-rep/535-rep-effic-safety-stud/5351-stud-rep-contr/cdiscpilot01/cdiscpilot01.pdf#nameddest=SAP_TEMP_15">
          <crt:title>SAP Template 15</crt:title>
        </crt:leaf>
        <crt:leaf ID="ARM-Leaf0065" xlink:href="../../../53-clin-stud-rep/535-rep-effic-safety-stud/5351-stud-rep-contr/cdiscpilot01/cdiscpilot01.pdf#nameddest=OUT_TBL_14.6.02">
          <crt:title>Table 14-6.02</crt:title>
        </crt:leaf>
        <crt:leaf ID="ARM-Leaf0066" xlink:href="../../../53-clin-stud-rep/535-rep-effic-safety-stud/5351-stud-rep-contr/cdiscpilot01/cdiscpilot01.pdf#nameddest=SAP_SEC_11.5">
          <crt:title>SAP Section 11.5</crt:title>
        </crt:leaf>
        <crt:leaf ID="ARM-Leaf0067" xlink:href="../../../53-clin-stud-rep/535-rep-effic-safety-stud/5351-stud-rep-contr/cdiscpilot01/cdiscpilot01.pdf#nameddest=SAP_TEMP_16">
          <crt:title>SAP Template 16</crt:title>
        </crt:leaf>
        <crt:leaf ID="ARM-Leaf0068" xlink:href="../../../53-clin-stud-rep/535-rep-effic-safety-stud/5351-stud-rep-contr/cdiscpilot01/cdiscpilot01.pdf#nameddest=OUT_TBL_14.6.03">
          <crt:title>Table 14-6.03</crt:title>
        </crt:leaf>
        <crt:leaf ID="ARM-Leaf0069" xlink:href="../../../53-clin-stud-rep/535-rep-effic-safety-stud/5351-stud-rep-contr/cdiscpilot01/cdiscpilot01.pdf#nameddest=SAP_SEC_11.5">
          <crt:title>SAP Section 11.5</crt:title>
        </crt:leaf>
        <crt:leaf ID="ARM-Leaf0070" xlink:href="../../../53-clin-stud-rep/535-rep-effic-safety-stud/5351-stud-rep-contr/cdiscpilot01/cdiscpilot01.pdf#nameddest=SAP_TEMP_17">
          <crt:title>SAP Template 17</crt:title>
        </crt:leaf>
        <crt:leaf ID="ARM-Leaf0071" xlink:href="../../../53-clin-stud-rep/535-rep-effic-safety-stud/5351-stud-rep-contr/cdiscpilot01/cdiscpilot01.pdf#nameddest=OUT_TBL_14.6.04">
          <crt:title>Table 14-6.04</crt:title>
        </crt:leaf>
        <crt:leaf ID="ARM-Leaf0072" xlink:href="../../../53-clin-stud-rep/535-rep-effic-safety-stud/5351-stud-rep-contr/cdiscpilot01/cdiscpilot01.pdf#nameddest=SAP_SEC_11.5">
          <crt:title>SAP Section 11.5</crt:title>
        </crt:leaf>
        <crt:leaf ID="ARM-Leaf0073" xlink:href="../../../53-clin-stud-rep/535-rep-effic-safety-stud/5351-stud-rep-contr/cdiscpilot01/cdiscpilot01.pdf#nameddest=SAP_TEMP_18">
          <crt:title>SAP Template 18</crt:title>
        </crt:leaf>
        <crt:leaf ID="ARM-Leaf0074" xlink:href="../../../53-clin-stud-rep/535-rep-effic-safety-stud/5351-stud-rep-contr/cdiscpilot01/cdiscpilot01.pdf#nameddest=OUT_TBL_14.6.05">
          <crt:title>Table 14-6.05</crt:title>
        </crt:leaf>
        <crt:leaf ID="ARM-Leaf0075" xlink:href="../../../53-clin-stud-rep/535-rep-effic-safety-stud/5351-stud-rep-contr/cdiscpilot01/cdiscpilot01.pdf#nameddest=SAP_SEC_11.5">
          <crt:title>SAP Section 11.5</crt:title>
        </crt:leaf>
        <crt:leaf ID="ARM-Leaf0076" xlink:href="../../../53-clin-stud-rep/535-rep-effic-safety-stud/5351-stud-rep-contr/cdiscpilot01/cdiscpilot01.pdf#nameddest=SAP_TEMP_19">
          <crt:title>SAP Template 19</crt:title>
        </crt:leaf>
        <crt:leaf ID="ARM-Leaf0077" xlink:href="../../../53-clin-stud-rep/535-rep-effic-safety-stud/5351-stud-rep-contr/cdiscpilot01/cdiscpilot01.pdf#nameddest=OUT_TBL_14.6.06">
          <crt:title>Table 14-6.06</crt:title>
        </crt:leaf>
        <crt:leaf ID="ARM-Leaf0078" xlink:href="../../../53-clin-stud-rep/535-rep-effic-safety-stud/5351-stud-rep-contr/cdiscpilot01/cdiscpilot01.pdf#nameddest=SAP_SEC_11.5">
          <crt:title>SAP Section 11.5</crt:title>
        </crt:leaf>
        <crt:leaf ID="ARM-Leaf0079" xlink:href="../../../53-clin-stud-rep/535-rep-effic-safety-stud/5351-stud-rep-contr/cdiscpilot01/cdiscpilot01.pdf#nameddest=SAP_TEMP_20">
          <crt:title>SAP Template 20</crt:title>
        </crt:leaf>
        <crt:leaf ID="ARM-Leaf0080" xlink:href="../../../53-clin-stud-rep/535-rep-effic-safety-stud/5351-stud-rep-contr/cdiscpilot01/cdiscpilot01.pdf#nameddest=OUT_TBL_14.7.01">
          <crt:title>Table 14-7.01</crt:title>
        </crt:leaf>
        <crt:leaf ID="ARM-Leaf0081" xlink:href="../../../53-clin-stud-rep/535-rep-effic-safety-stud/5351-stud-rep-contr/cdiscpilot01/cdiscpilot01.pdf#nameddest=SAP_SEC_11.6">
          <crt:title>SAP Section 11.6</crt:title>
        </crt:leaf>
        <crt:leaf ID="ARM-Leaf0082" xlink:href="../../../53-clin-stud-rep/535-rep-effic-safety-stud/5351-stud-rep-contr/cdiscpilot01/cdiscpilot01.pdf#nameddest=SAP_TEMP_21">
          <crt:title>SAP Template 21</crt:title>
        </crt:leaf>
        <crt:leaf ID="ARM-Leaf0083" xlink:href="../../../53-clin-stud-rep/535-rep-effic-safety-stud/5351-stud-rep-contr/cdiscpilot01/cdiscpilot01.pdf#nameddest=OUT_TBL_14.7.02">
          <crt:title>Table 14-7.02</crt:title>
        </crt:leaf>
        <crt:leaf ID="ARM-Leaf0084" xlink:href="../../../53-clin-stud-rep/535-rep-effic-safety-stud/5351-stud-rep-contr/cdiscpilot01/cdiscpilot01.pdf#nameddest=SAP_SEC_11.6">
          <crt:title>SAP Section 11.6</crt:title>
        </crt:leaf>
        <crt:leaf ID="ARM-Leaf0085" xlink:href="../../../53-clin-stud-rep/535-rep-effic-safety-stud/5351-stud-rep-contr/cdiscpilot01/cdiscpilot01.pdf#nameddest=SAP_TEMP_22">
          <crt:title>SAP Template 22</crt:title>
        </crt:leaf>
        <crt:leaf ID="ARM-Leaf0086" xlink:href="../../../53-clin-stud-rep/535-rep-effic-safety-stud/5351-stud-rep-contr/cdiscpilot01/cdiscpilot01.pdf#nameddest=OUT_TBL_14.7.03">
          <crt:title>Table 14-7.03</crt:title>
        </crt:leaf>
        <crt:leaf ID="ARM-Leaf0087" xlink:href="../../../53-clin-stud-rep/535-rep-effic-safety-stud/5351-stud-rep-contr/cdiscpilot01/cdiscpilot01.pdf#nameddest=SAP_SEC_11.6">
          <crt:title>SAP Section 11.6</crt:title>
        </crt:leaf>
        <crt:leaf ID="ARM-Leaf0088" xlink:href="../../../53-clin-stud-rep/535-rep-effic-safety-stud/5351-stud-rep-contr/cdiscpilot01/cdiscpilot01.pdf#nameddest=SAP_TEMP_23">
          <crt:title>SAP Template 23</crt:title>
        </crt:leaf>
        <crt:leaf ID="ARM-Leaf0089" xlink:href="../../../53-clin-stud-rep/535-rep-effic-safety-stud/5351-stud-rep-contr/cdiscpilot01/cdiscpilot01.pdf#nameddest=OUT_TBL_14.7.04">
          <crt:title>Table 14-7.04</crt:title>
        </crt:leaf>
        <crt:leaf ID="ARM-Leaf0090" xlink:href="../../../53-clin-stud-rep/535-rep-effic-safety-stud/5351-stud-rep-contr/cdiscpilot01/cdiscpilot01.pdf#nameddest=SAP_SEC_11.6">
          <crt:title>SAP Section 11.6</crt:title>
        </crt:leaf>
        <crt:leaf ID="ARM-Leaf0091" xlink:href="../../../53-clin-stud-rep/535-rep-effic-safety-stud/5351-stud-rep-contr/cdiscpilot01/cdiscpilot01.pdf#nameddest=SAP_TEMP_24">
          <crt:title>SAP Template 24</crt:title>
        </crt:leaf>
        <crt:leaf ID="ARM-Leaf0092" xlink:href="../../../53-clin-stud-rep/535-rep-effic-safety-stud/5351-stud-rep-contr/cdiscpilot01/cdiscpilot01.pdf#nameddest=OUT_FIG_14.1">
          <crt:title>Figure 14-1</crt:title>
        </crt:leaf>
        <crt:leaf ID="ARM-Leaf0093" xlink:href="../../../53-clin-stud-rep/535-rep-effic-safety-stud/5351-stud-rep-contr/cdiscpilot01/cdiscpilot01.pdf#nameddest=SAP_SEC_11.2">
          <crt:title>SAP Section 11.2</crt:title>
        </crt:leaf>
        <crt:leaf ID="ARM-Leaf0094" xlink:href="../../../53-clin-stud-rep/535-rep-effic-safety-stud/5351-stud-rep-contr/cdiscpilot01/cdiscpilot01.pdf#nameddest=SAP_TEMP_F1">
          <crt:title>SAP Template F1</crt:title>
        </crt:leaf>
 
<!-- ************************************************************** -->
<!-- Defining ItemGroupDef for data set ADAE                    -->
<!-- ************************************************************** -->
<ItemGroupDef OID="TABLE1" Name="ADAE"
 Repeating="Yes"
 IsReferenceData="No"
 SASDatasetName="ADAE"
 Purpose="Analysis"
 crt:Label="Adverse Event Analysis"
 crt:Structure="one record per adverse event per subject"
 crt:DomainKeys="USUBJID, AESEQ"
 crt:Class="Analysis"
 crt:ArchiveLocationID="Location.TABLE1"
>
<!-- ItemRef in data set ADAE for variable USUBJID -->
 <ItemRef ItemOID="COL55"
  OrderNumber="1"
  Mandatory="Yes"
  KeySequence="1"
  Role="Identifier"
 />
<!-- ItemRef in data set ADAE for variable AESEQ -->
 <ItemRef ItemOID="COL13"
  OrderNumber="2"
  Mandatory="Yes"
  KeySequence="2"
  Role="Selection"
 />
<!-- ItemRef in data set ADAE for variable STUDYID -->
 <ItemRef ItemOID="COL47"
  OrderNumber="3"
  Mandatory="Yes"
  Role="Identifier"
 />
<!-- ItemRef in data set ADAE for variable DOMAIN -->
 <ItemRef ItemOID="COL30"
  OrderNumber="4"
  Mandatory="Yes"
 MethodOID="METHDEF13"
  Role="Identifier"
 />
<!-- ItemRef in data set ADAE for variable SITEID -->
 <ItemRef ItemOID="COL46"
  OrderNumber="5"
  Mandatory="Yes"
  Role="Identifier"
 />
<!-- ItemRef in data set ADAE for variable SUBJID -->
 <ItemRef ItemOID="COL48"
  OrderNumber="6"
  Mandatory="Yes"
  Role="Identifier"
 />
<!-- ItemRef in data set ADAE for variable AETERM -->
 <ItemRef ItemOID="COL22"
  OrderNumber="7"
  Mandatory="Yes"
  Role="Support"
 />
<!-- ItemRef in data set ADAE for variable AEDECOD -->
 <ItemRef ItemOID="COL2"
  OrderNumber="8"
  Mandatory="Yes"
  Role="Selection"
 />
<!-- ItemRef in data set ADAE for variable AEBODSYS -->
 <ItemRef ItemOID="COL1"
  OrderNumber="9"
  Mandatory="Yes"
  Role="Selection"
 />
<!-- ItemRef in data set ADAE for variable AESEV -->
 <ItemRef ItemOID="COL16"
  OrderNumber="10"
  Mandatory="Yes"
  Role="Selection"
 />
<!-- ItemRef in data set ADAE for variable AESER -->
 <ItemRef ItemOID="COL14"
  OrderNumber="11"
  Mandatory="Yes"
  Role="Selection"
 />
<!-- ItemRef in data set ADAE for variable AESERN -->
 <ItemRef ItemOID="COL15"
  OrderNumber="12"
  Mandatory="Yes"
 MethodOID="METHDEF6"
  Role="Analysis"
 />
<!-- ItemRef in data set ADAE for variable AEREL -->
 <ItemRef ItemOID="COL8"
  OrderNumber="13"
  Mandatory="Yes"
  Role="Selection"
 />
<!-- ItemRef in data set ADAE for variable DSREASAE -->
 <ItemRef ItemOID="COL31"
  OrderNumber="14"
  Mandatory="Yes"
  Role="Selection"
 />
<!-- ItemRef in data set ADAE for variable ONTRTFL -->
 <ItemRef ItemOID="COL38"
  OrderNumber="15"
  Mandatory="Yes"
 MethodOID="METHDEF219"
  Role="Support"
 />
<!-- ItemRef in data set ADAE for variable TRTEMFL -->
 <ItemRef ItemOID="COL50"
  OrderNumber="16"
  Mandatory="Yes"
 MethodOID="METHDEF17"
  Role="Selection"
 />
<!-- ItemRef in data set ADAE for variable AEFN -->
 <ItemRef ItemOID="COL7"
  OrderNumber="17"
  Mandatory="Yes"
 MethodOID="METHDEF5"
  Role="Selection"
 />
<!-- ItemRef in data set ADAE for variable BODFN -->
 <ItemRef ItemOID="COL27"
  OrderNumber="18"
  Mandatory="Yes"
 MethodOID="METHDEF11"
  Role="Selection"
 />
<!-- ItemRef in data set ADAE for variable DECODFN -->
 <ItemRef ItemOID="COL29"
  OrderNumber="19"
  Mandatory="Yes"
 MethodOID="METHDEF12"
  Role="Selection"
 />
<!-- ItemRef in data set ADAE for variable SAEFN -->
 <ItemRef ItemOID="COL41"
  OrderNumber="20"
  Mandatory="Yes"
 MethodOID="METHDEF14"
  Role="Selection"
 />
<!-- ItemRef in data set ADAE for variable SDECODFN -->
 <ItemRef ItemOID="COL44"
  OrderNumber="21"
  Mandatory="Yes"
 MethodOID="METHDEF16"
  Role="Selection"
 />
<!-- ItemRef in data set ADAE for variable SBODFN -->
 <ItemRef ItemOID="COL43"
  OrderNumber="22"
  Mandatory="Yes"
 MethodOID="METHDEF15"
  Role="Selection"
 />
<!-- ItemRef in data set ADAE for variable AEDERMFN -->
 <ItemRef ItemOID="COL3"
  OrderNumber="23"
  Mandatory="Yes"
 MethodOID="METHDEF1"
  Role="Selection"
 />
<!-- ItemRef in data set ADAE for variable AESTDT -->
 <ItemRef ItemOID="COL19"
  OrderNumber="24"
  Mandatory="Yes"
 MethodOID="METHDEF7"
  Role="Support"
 />
<!-- ItemRef in data set ADAE for variable AESTDTF -->
 <ItemRef ItemOID="COL20"
  OrderNumber="25"
  Mandatory="Yes"
 MethodOID="METHDEF8"
  Role="Support"
 />
<!-- ItemRef in data set ADAE for variable AESTDY -->
 <ItemRef ItemOID="COL21"
  OrderNumber="26"
  Mandatory="Yes"
 MethodOID="METHDEF9"
  Role="Selection"
 />
<!-- ItemRef in data set ADAE for variable ANLSTDY -->
 <ItemRef ItemOID="COL26"
  OrderNumber="27"
  Mandatory="Yes"
 MethodOID="METHDEF10"
  Role="Timing"
 />
<!-- ItemRef in data set ADAE for variable AEENDT -->
 <ItemRef ItemOID="COL5"
  OrderNumber="28"
  Mandatory="Yes"
 MethodOID="METHDEF3"
  Role="Support"
 />
<!-- ItemRef in data set ADAE for variable AEENDY -->
 <ItemRef ItemOID="COL6"
  OrderNumber="29"
  Mandatory="Yes"
 MethodOID="METHDEF4"
  Role="Support"
 />
<!-- ItemRef in data set ADAE for variable TRTP -->
 <ItemRef ItemOID="COL51"
  OrderNumber="30"
  Mandatory="Yes"
  Role="Analysis"
 />
<!-- ItemRef in data set ADAE for variable TRTPCD -->
 <ItemRef ItemOID="COL52"
  OrderNumber="31"
  Mandatory="Yes"
  Role="Analysis"
 />
<!-- ItemRef in data set ADAE for variable TRTPN -->
 <ItemRef ItemOID="COL53"
  OrderNumber="32"
  Mandatory="Yes"
  Role="Analysis"
 />
<!-- ItemRef in data set ADAE for variable AGE -->
 <ItemRef ItemOID="COL23"
  OrderNumber="33"
  Mandatory="Yes"
  Role="Covariate"
 />
<!-- ItemRef in data set ADAE for variable AGEGRP -->
 <ItemRef ItemOID="COL24"
  OrderNumber="34"
  Mandatory="Yes"
  Role="Covariate"
 />
<!-- ItemRef in data set ADAE for variable AGEGRPN -->
 <ItemRef ItemOID="COL25"
  OrderNumber="35"
  Mandatory="Yes"
  Role="Covariate"
 />
<!-- ItemRef in data set ADAE for variable RACE -->
 <ItemRef ItemOID="COL39"
  OrderNumber="36"
  Mandatory="Yes"
  Role="Covariate"
 />
<!-- ItemRef in data set ADAE for variable RACEN -->
 <ItemRef ItemOID="COL40"
  OrderNumber="37"
  Mandatory="Yes"
  Role="Covariate"
 />
<!-- ItemRef in data set ADAE for variable SEX -->
 <ItemRef ItemOID="COL45"
  OrderNumber="38"
  Mandatory="Yes"
  Role="Covariate Selection"
 />
<!-- ItemRef in data set ADAE for variable SAFETY -->
 <ItemRef ItemOID="COL42"
  OrderNumber="39"
  Mandatory="Yes"
  Role="Selection"
 />
<!-- ItemRef in data set ADAE for variable ITT -->
 <ItemRef ItemOID="COL35"
  OrderNumber="40"
  Mandatory="Yes"
  Role="Selection"
 />
<!-- ItemRef in data set ADAE for variable EFFICACY -->
 <ItemRef ItemOID="COL32"
  OrderNumber="41"
  Mandatory="Yes"
  Role="Selection"
 />
<!-- ItemRef in data set ADAE for variable COMPLT24 -->
 <ItemRef ItemOID="COL28"
  OrderNumber="42"
  Mandatory="Yes"
  Role="Selection"
 />
<!-- ItemRef in data set ADAE for variable AEDICT -->
 <ItemRef ItemOID="COL4"
  OrderNumber="43"
  Mandatory="Yes"
 MethodOID="METHDEF2"
  Role="Support"
 />
<!-- ItemRef in data set ADAE for variable AESCAN -->
 <ItemRef ItemOID="COL9"
  OrderNumber="44"
  Mandatory="Yes"
  Role="Support"
 />
<!-- ItemRef in data set ADAE for variable AESCONG -->
 <ItemRef ItemOID="COL10"
  OrderNumber="45"
  Mandatory="Yes"
  Role="Support"
 />
<!-- ItemRef in data set ADAE for variable AESDISAB -->
 <ItemRef ItemOID="COL11"
  OrderNumber="46"
  Mandatory="Yes"
  Role="Support"
 />
<!-- ItemRef in data set ADAE for variable AESDTH -->
 <ItemRef ItemOID="COL12"
  OrderNumber="47"
  Mandatory="Yes"
  Role="Support"
 />
<!-- ItemRef in data set ADAE for variable AESHOSP -->
 <ItemRef ItemOID="COL17"
  OrderNumber="48"
  Mandatory="Yes"
  Role="Support"
 />
<!-- ItemRef in data set ADAE for variable AESLIFE -->
 <ItemRef ItemOID="COL18"
  OrderNumber="49"
  Mandatory="Yes"
  Role="Support"
 />
<!-- ItemRef in data set ADAE for variable HLGTERM -->
 <ItemRef ItemOID="COL33"
  OrderNumber="50"
  Mandatory="Yes"
  Role="Support"
 />
<!-- ItemRef in data set ADAE for variable HLTERM -->
 <ItemRef ItemOID="COL34"
  OrderNumber="51"
  Mandatory="Yes"
  Role="Support"
 />
<!-- ItemRef in data set ADAE for variable LLTERM -->
 <ItemRef ItemOID="COL36"
  OrderNumber="52"
  Mandatory="Yes"
  Role="Support"
 />
<!-- ItemRef in data set ADAE for variable LSTDOSDT -->
 <ItemRef ItemOID="COL37"
  OrderNumber="53"
  Mandatory="Yes"
  Role="Support"
 />
<!-- ItemRef in data set ADAE for variable TRTDUR -->
 <ItemRef ItemOID="COL49"
  OrderNumber="54"
  Mandatory="Yes"
  Role="Support"
 />
<!-- ItemRef in data set ADAE for variable TRTSTDT -->
 <ItemRef ItemOID="COL54"
  OrderNumber="55"
  Mandatory="Yes"
  Role="Support"
 />
 <crt:leaf ID="Location.TABLE1" xlink:href="../analysis/adae.xpt">
 <crt:title>adae.xpt</crt:title>
 </crt:leaf>
</ItemGroupDef>
<!-- ************************************************************** -->
<!-- Defining ItemGroupDef for data set ADLBC                    -->
<!-- ************************************************************** -->
<ItemGroupDef OID="TABLE2" Name="ADLBC"
 Repeating="Yes"
 IsReferenceData="No"
 SASDatasetName="ADLBC"
 Purpose="Analysis"
 crt:Label="Chemistry Lab Analysis"
 crt:Structure="one record per lab test per visit per subject"
 crt:DomainKeys="USUBJID, VISITNUM, LBTESTCD"
 crt:Class="Analysis"
 crt:ArchiveLocationID="Location.TABLE2"
>
<!-- ItemRef in data set ADLBC for variable USUBJID -->
 <ItemRef ItemOID="COL111"
  OrderNumber="1"
  Mandatory="Yes"
  KeySequence="1"
  Role="Identifier"
 />
<!-- ItemRef in data set ADLBC for variable VISITNUM -->
 <ItemRef ItemOID="COL113"
  OrderNumber="2"
  Mandatory="Yes"
  KeySequence="2"
  Role="Timing"
 />
<!-- ItemRef in data set ADLBC for variable LBTESTCD -->
 <ItemRef ItemOID="COL85"
  OrderNumber="3"
  Mandatory="Yes"
  KeySequence="3"
  Role="Identifier"
 />
<!-- ItemRef in data set ADLBC for variable STUDYID -->
 <ItemRef ItemOID="COL104"
  OrderNumber="4"
  Mandatory="Yes"
  Role="Identifier"
 />
<!-- ItemRef in data set ADLBC for variable DOMAIN -->
 <ItemRef ItemOID="COL68"
  OrderNumber="5"
  Mandatory="Yes"
 MethodOID="METHDEF26"
  Role="Identifier"
 />
<!-- ItemRef in data set ADLBC for variable SUBJID -->
 <ItemRef ItemOID="COL105"
  OrderNumber="6"
  Mandatory="Yes"
  Role="Identifier"
 />
<!-- ItemRef in data set ADLBC for variable VISIT -->
 <ItemRef ItemOID="COL112"
  OrderNumber="7"
  Mandatory="Yes"
  Role="Timing"
 />
<!-- ItemRef in data set ADLBC for variable ANLDY -->
 <ItemRef ItemOID="COL59"
  OrderNumber="8"
  Mandatory="Yes"
 MethodOID="METHDEF18"
  Role="Timing"
 />
<!-- ItemRef in data set ADLBC for variable LBDT -->
 <ItemRef ItemOID="COL74"
  OrderNumber="9"
  Mandatory="Yes"
 MethodOID="METHDEF29"
  Role="Timing"
 />
<!-- ItemRef in data set ADLBC for variable LBTYPE -->
 <ItemRef ItemOID="COL91"
  OrderNumber="10"
  Mandatory="Yes"
 MethodOID="METHDEF38"
  Role="Selection"
 />
<!-- ItemRef in data set ADLBC for variable LBTEST -->
 <ItemRef ItemOID="COL84"
  OrderNumber="11"
  Mandatory="Yes"
  Role="Identifier"
 />
<!-- ItemRef in data set ADLBC for variable LBBLFL -->
 <ItemRef ItemOID="COL73"
  OrderNumber="12"
  Mandatory="Yes"
 MethodOID="METHDEF28"
  Role="Selection"
 />
<!-- ItemRef in data set ADLBC for variable ONTRTFL -->
 <ItemRef ItemOID="COL93"
  OrderNumber="13"
  Mandatory="Yes"
 MethodOID="METHDEF219"
  Role="Support"
 />
<!-- ItemRef in data set ADLBC for variable ENTMTFL -->
 <ItemRef ItemOID="COL71"
  OrderNumber="14"
  Mandatory="Yes"
 MethodOID="METHDEF27"
  Role="Selection"
 />
<!-- ItemRef in data set ADLBC for variable BLTRFL -->
 <ItemRef ItemOID="COL65"
  OrderNumber="15"
  Mandatory="Yes"
 MethodOID="METHDEF24"
  Role="Analysis"
 />
<!-- ItemRef in data set ADLBC for variable LBNRIND -->
 <ItemRef ItemOID="COL75"
  OrderNumber="16"
  Mandatory="Yes"
  Role="Analysis"
 />
<!-- ItemRef in data set ADLBC for variable LBTRFL -->
 <ItemRef ItemOID="COL88"
  OrderNumber="17"
  Mandatory="Yes"
 MethodOID="METHDEF35"
  Role="Analysis"
 />
<!-- ItemRef in data set ADLBC for variable LBTRMXFL -->
 <ItemRef ItemOID="COL89"
  OrderNumber="18"
  Mandatory="Yes"
 MethodOID="METHDEF36"
  Role="Selection Analysis"
 />
<!-- ItemRef in data set ADLBC for variable LBPRFL -->
 <ItemRef ItemOID="COL76"
  OrderNumber="19"
  Mandatory="Yes"
 MethodOID="METHDEF30"
  Role="Analysis"
 />
<!-- ItemRef in data set ADLBC for variable LBPRMXFL -->
 <ItemRef ItemOID="COL77"
  OrderNumber="20"
  Mandatory="Yes"
 MethodOID="METHDEF31"
  Role="Selection Analysis"
 />
<!-- ItemRef in data set ADLBC for variable LBSTRESC -->
 <ItemRef ItemOID="COL81"
  OrderNumber="21"
  Mandatory="Yes"
  Role="Analysis"
 />
<!-- ItemRef in data set ADLBC for variable LBSTRESN -->
 <ItemRef ItemOID="COL82"
  OrderNumber="22"
  Mandatory="Yes"
  Role="Analysis"
 />
<!-- ItemRef in data set ADLBC for variable LBSTRESU -->
 <ItemRef ItemOID="COL83"
  OrderNumber="23"
  Mandatory="Yes"
  Role="Support"
 />
<!-- ItemRef in data set ADLBC for variable BLSTRESN -->
 <ItemRef ItemOID="COL62"
  OrderNumber="24"
  Mandatory="Yes"
 MethodOID="METHDEF21"
  Role="Analysis"
 />
<!-- ItemRef in data set ADLBC for variable BLTMSLO -->
 <ItemRef ItemOID="COL64"
  OrderNumber="25"
  Mandatory="Yes"
 MethodOID="METHDEF23"
  Role="Analysis"
 />
<!-- ItemRef in data set ADLBC for variable BLTMSHI -->
 <ItemRef ItemOID="COL63"
  OrderNumber="26"
  Mandatory="Yes"
 MethodOID="METHDEF22"
  Role="Analysis"
 />
<!-- ItemRef in data set ADLBC for variable CHSTRESN -->
 <ItemRef ItemOID="COL66"
  OrderNumber="27"
  Mandatory="Yes"
 MethodOID="METHDEF25"
  Role="Analysis"
 />
<!-- ItemRef in data set ADLBC for variable LBTMSLO -->
 <ItemRef ItemOID="COL87"
  OrderNumber="28"
  Mandatory="Yes"
 MethodOID="METHDEF34"
  Role="Analysis"
 />
<!-- ItemRef in data set ADLBC for variable LBTMSHI -->
 <ItemRef ItemOID="COL86"
  OrderNumber="29"
  Mandatory="Yes"
 MethodOID="METHDEF33"
  Role="Analysis"
 />
<!-- ItemRef in data set ADLBC for variable LBTRVAL -->
 <ItemRef ItemOID="COL90"
  OrderNumber="30"
  Mandatory="Yes"
 MethodOID="METHDEF37"
  Role="Support"
 />
<!-- ItemRef in data set ADLBC for variable PRSTRESN -->
 <ItemRef ItemOID="COL96"
  OrderNumber="31"
  Mandatory="Yes"
 MethodOID="METHDEF41"
  Role="Analysis"
 />
<!-- ItemRef in data set ADLBC for variable LBPRRESN -->
 <ItemRef ItemOID="COL78"
  OrderNumber="32"
  Mandatory="Yes"
 MethodOID="METHDEF32"
  Role="Support"
 />
<!-- ItemRef in data set ADLBC for variable PRTMSLO -->
 <ItemRef ItemOID="COL98"
  OrderNumber="33"
  Mandatory="Yes"
 MethodOID="METHDEF43"
  Role="Analysis"
 />
<!-- ItemRef in data set ADLBC for variable PRTMSHI -->
 <ItemRef ItemOID="COL97"
  OrderNumber="34"
  Mandatory="Yes"
 MethodOID="METHDEF42"
  Role="Analysis"
 />
<!-- ItemRef in data set ADLBC for variable TRTP -->
 <ItemRef ItemOID="COL107"
  OrderNumber="35"
  Mandatory="Yes"
  Role="Analysis"
 />
<!-- ItemRef in data set ADLBC for variable TRTPCD -->
 <ItemRef ItemOID="COL108"
  OrderNumber="36"
  Mandatory="Yes"
  Role="Analysis"
 />
<!-- ItemRef in data set ADLBC for variable TRTPN -->
 <ItemRef ItemOID="COL109"
  OrderNumber="37"
  Mandatory="Yes"
  Role="Analysis"
 />
<!-- ItemRef in data set ADLBC for variable AGE -->
 <ItemRef ItemOID="COL56"
  OrderNumber="38"
  Mandatory="Yes"
  Role="Covariate"
 />
<!-- ItemRef in data set ADLBC for variable AGEGRP -->
 <ItemRef ItemOID="COL57"
  OrderNumber="39"
  Mandatory="Yes"
  Role="Covariate"
 />
<!-- ItemRef in data set ADLBC for variable AGEGRPN -->
 <ItemRef ItemOID="COL58"
  OrderNumber="40"
  Mandatory="Yes"
  Role="Covariate"
 />
<!-- ItemRef in data set ADLBC for variable RACE -->
 <ItemRef ItemOID="COL99"
  OrderNumber="41"
  Mandatory="Yes"
  Role="Covariate"
 />
<!-- ItemRef in data set ADLBC for variable RACEN -->
 <ItemRef ItemOID="COL100"
  OrderNumber="42"
  Mandatory="Yes"
  Role="Covariate"
 />
<!-- ItemRef in data set ADLBC for variable SEX -->
 <ItemRef ItemOID="COL103"
  OrderNumber="43"
  Mandatory="Yes"
  Role="Covariate Selection"
 />
<!-- ItemRef in data set ADLBC for variable BLLO -->
 <ItemRef ItemOID="COL61"
  OrderNumber="44"
  Mandatory="Yes"
 MethodOID="METHDEF20"
  Role="Analysis"
 />
<!-- ItemRef in data set ADLBC for variable BLHI -->
 <ItemRef ItemOID="COL60"
  OrderNumber="45"
  Mandatory="Yes"
 MethodOID="METHDEF19"
  Role="Analysis"
 />
<!-- ItemRef in data set ADLBC for variable LBSTNRLO -->
 <ItemRef ItemOID="COL80"
  OrderNumber="46"
  Mandatory="Yes"
  Role="Analysis"
 />
<!-- ItemRef in data set ADLBC for variable LBSTNRHI -->
 <ItemRef ItemOID="COL79"
  OrderNumber="47"
  Mandatory="Yes"
  Role="Analysis"
 />
<!-- ItemRef in data set ADLBC for variable PRLO -->
 <ItemRef ItemOID="COL95"
  OrderNumber="48"
  Mandatory="Yes"
 MethodOID="METHDEF40"
  Role="Analysis"
 />
<!-- ItemRef in data set ADLBC for variable PRHI -->
 <ItemRef ItemOID="COL94"
  OrderNumber="49"
  Mandatory="Yes"
 MethodOID="METHDEF39"
  Role="Analysis"
 />
<!-- ItemRef in data set ADLBC for variable SAFETY -->
 <ItemRef ItemOID="COL102"
  OrderNumber="50"
  Mandatory="Yes"
  Role="Selection"
 />
<!-- ItemRef in data set ADLBC for variable ITT -->
 <ItemRef ItemOID="COL72"
  OrderNumber="51"
  Mandatory="Yes"
  Role="Selection"
 />
<!-- ItemRef in data set ADLBC for variable EFFICACY -->
 <ItemRef ItemOID="COL70"
  OrderNumber="52"
  Mandatory="Yes"
  Role="Selection"
 />
<!-- ItemRef in data set ADLBC for variable COMPLT24 -->
 <ItemRef ItemOID="COL67"
  OrderNumber="53"
  Mandatory="Yes"
  Role="Selection"
 />
<!-- ItemRef in data set ADLBC for variable DSREASAE -->
 <ItemRef ItemOID="COL69"
  OrderNumber="54"
  Mandatory="Yes"
  Role="Selection"
 />
<!-- ItemRef in data set ADLBC for variable RANDDT -->
 <ItemRef ItemOID="COL101"
  OrderNumber="55"
  Mandatory="Yes"
  Role="Support"
 />
<!-- ItemRef in data set ADLBC for variable TRTSTDT -->
 <ItemRef ItemOID="COL110"
  OrderNumber="56"
  Mandatory="Yes"
  Role="Support"
 />
<!-- ItemRef in data set ADLBC for variable LSTDOSDT -->
 <ItemRef ItemOID="COL92"
  OrderNumber="57"
  Mandatory="Yes"
  Role="Support"
 />
<!-- ItemRef in data set ADLBC for variable TRTDUR -->
 <ItemRef ItemOID="COL106"
  OrderNumber="58"
  Mandatory="Yes"
  Role="Support"
 />
 <crt:leaf ID="Location.TABLE2" xlink:href="../analysis/adlbc.xpt">
 <crt:title>adlbc.xpt</crt:title>
 </crt:leaf>
</ItemGroupDef>
<!-- ************************************************************** -->
<!-- Defining ItemGroupDef for data set ADLBH                    -->
<!-- ************************************************************** -->
<ItemGroupDef OID="TABLE3" Name="ADLBH"
 Repeating="Yes"
 IsReferenceData="No"
 SASDatasetName="ADLBH"
 Purpose="Analysis"
 crt:Label="Hematology Lab Analysis"
 crt:Structure="one record per lab test per visit per subject"
 crt:DomainKeys="USUBJID, VISITNUM, LBTESTCD"
 crt:Class="Analysis"
 crt:ArchiveLocationID="Location.TABLE3"
>
<!-- ItemRef in data set ADLBH for variable USUBJID -->
 <ItemRef ItemOID="COL169"
  OrderNumber="1"
  Mandatory="Yes"
  KeySequence="1"
  Role="Identifier"
 />
<!-- ItemRef in data set ADLBH for variable VISITNUM -->
 <ItemRef ItemOID="COL171"
  OrderNumber="2"
  Mandatory="Yes"
  KeySequence="2"
  Role="Timing"
 />
<!-- ItemRef in data set ADLBH for variable LBTESTCD -->
 <ItemRef ItemOID="COL143"
  OrderNumber="3"
  Mandatory="Yes"
  KeySequence="3"
  Role="Identifier"
 />
<!-- ItemRef in data set ADLBH for variable STUDYID -->
 <ItemRef ItemOID="COL162"
  OrderNumber="4"
  Mandatory="Yes"
  Role="Identifier"
 />
<!-- ItemRef in data set ADLBH for variable DOMAIN -->
 <ItemRef ItemOID="COL126"
  OrderNumber="5"
  Mandatory="Yes"
 MethodOID="METHDEF126"
  Role="Identifier"
 />
<!-- ItemRef in data set ADLBH for variable SUBJID -->
 <ItemRef ItemOID="COL163"
  OrderNumber="6"
  Mandatory="Yes"
  Role="Identifier"
 />
<!-- ItemRef in data set ADLBH for variable VISIT -->
 <ItemRef ItemOID="COL170"
  OrderNumber="7"
  Mandatory="Yes"
  Role="Timing"
 />
<!-- ItemRef in data set ADLBH for variable ANLDY -->
 <ItemRef ItemOID="COL117"
  OrderNumber="8"
  Mandatory="Yes"
 MethodOID="METHDEF118"
  Role="Timing"
 />
<!-- ItemRef in data set ADLBH for variable LBDT -->
 <ItemRef ItemOID="COL132"
  OrderNumber="9"
  Mandatory="Yes"
 MethodOID="METHDEF129"
  Role="Timing"
 />
<!-- ItemRef in data set ADLBH for variable LBTYPE -->
 <ItemRef ItemOID="COL149"
  OrderNumber="10"
  Mandatory="Yes"
 MethodOID="METHDEF138"
  Role="Selection"
 />
<!-- ItemRef in data set ADLBH for variable LBTEST -->
 <ItemRef ItemOID="COL142"
  OrderNumber="11"
  Mandatory="Yes"
  Role="Identifier"
 />
<!-- ItemRef in data set ADLBH for variable LBBLFL -->
 <ItemRef ItemOID="COL131"
  OrderNumber="12"
  Mandatory="Yes"
 MethodOID="METHDEF128"
  Role="Selection"
 />
<!-- ItemRef in data set ADLBH for variable ONTRTFL -->
 <ItemRef ItemOID="COL151"
  OrderNumber="13"
  Mandatory="Yes"
 MethodOID="METHDEF219"
  Role="Support"
 />
<!-- ItemRef in data set ADLBH for variable ENTMTFL -->
 <ItemRef ItemOID="COL129"
  OrderNumber="14"
  Mandatory="Yes"
 MethodOID="METHDEF127"
  Role="Selection"
 />
<!-- ItemRef in data set ADLBH for variable BLTRFL -->
 <ItemRef ItemOID="COL123"
  OrderNumber="15"
  Mandatory="Yes"
 MethodOID="METHDEF124"
  Role="Analysis"
 />
<!-- ItemRef in data set ADLBH for variable LBNRIND -->
 <ItemRef ItemOID="COL133"
  OrderNumber="16"
  Mandatory="Yes"
  Role="Analysis"
 />
<!-- ItemRef in data set ADLBH for variable LBTRFL -->
 <ItemRef ItemOID="COL146"
  OrderNumber="17"
  Mandatory="Yes"
 MethodOID="METHDEF135"
  Role="Analysis"
 />
<!-- ItemRef in data set ADLBH for variable LBTRMXFL -->
 <ItemRef ItemOID="COL147"
  OrderNumber="18"
  Mandatory="Yes"
 MethodOID="METHDEF136"
  Role="Selection Analysis"
 />
<!-- ItemRef in data set ADLBH for variable LBPRFL -->
 <ItemRef ItemOID="COL134"
  OrderNumber="19"
  Mandatory="Yes"
 MethodOID="METHDEF130"
  Role="Analysis"
 />
<!-- ItemRef in data set ADLBH for variable LBPRMXFL -->
 <ItemRef ItemOID="COL135"
  OrderNumber="20"
  Mandatory="Yes"
 MethodOID="METHDEF131"
  Role="Selection Analysis"
 />
<!-- ItemRef in data set ADLBH for variable LBSTRESC -->
 <ItemRef ItemOID="COL139"
  OrderNumber="21"
  Mandatory="Yes"
  Role="Analysis"
 />
<!-- ItemRef in data set ADLBH for variable LBSTRESN -->
 <ItemRef ItemOID="COL140"
  OrderNumber="22"
  Mandatory="Yes"
  Role="Analysis"
 />
<!-- ItemRef in data set ADLBH for variable LBSTRESU -->
 <ItemRef ItemOID="COL141"
  OrderNumber="23"
  Mandatory="Yes"
  Role="Support"
 />
<!-- ItemRef in data set ADLBH for variable BLSTRESN -->
 <ItemRef ItemOID="COL120"
  OrderNumber="24"
  Mandatory="Yes"
 MethodOID="METHDEF121"
  Role="Analysis"
 />
<!-- ItemRef in data set ADLBH for variable BLTMSLO -->
 <ItemRef ItemOID="COL122"
  OrderNumber="25"
  Mandatory="Yes"
 MethodOID="METHDEF123"
  Role="Analysis"
 />
<!-- ItemRef in data set ADLBH for variable BLTMSHI -->
 <ItemRef ItemOID="COL121"
  OrderNumber="26"
  Mandatory="Yes"
 MethodOID="METHDEF122"
  Role="Analysis"
 />
<!-- ItemRef in data set ADLBH for variable CHSTRESN -->
 <ItemRef ItemOID="COL124"
  OrderNumber="27"
  Mandatory="Yes"
 MethodOID="METHDEF125"
  Role="Analysis"
 />
<!-- ItemRef in data set ADLBH for variable LBTMSLO -->
 <ItemRef ItemOID="COL145"
  OrderNumber="28"
  Mandatory="Yes"
 MethodOID="METHDEF134"
  Role="Analysis"
 />
<!-- ItemRef in data set ADLBH for variable LBTMSHI -->
 <ItemRef ItemOID="COL144"
  OrderNumber="29"
  Mandatory="Yes"
 MethodOID="METHDEF133"
  Role="Analysis"
 />
<!-- ItemRef in data set ADLBH for variable LBTRVAL -->
 <ItemRef ItemOID="COL148"
  OrderNumber="30"
  Mandatory="Yes"
 MethodOID="METHDEF137"
  Role="Support"
 />
<!-- ItemRef in data set ADLBH for variable PRSTRESN -->
 <ItemRef ItemOID="COL154"
  OrderNumber="31"
  Mandatory="Yes"
 MethodOID="METHDEF141"
  Role="Analysis"
 />
<!-- ItemRef in data set ADLBH for variable LBPRRESN -->
 <ItemRef ItemOID="COL136"
  OrderNumber="32"
  Mandatory="Yes"
 MethodOID="METHDEF132"
  Role="Support"
 />
<!-- ItemRef in data set ADLBH for variable PRTMSLO -->
 <ItemRef ItemOID="COL156"
  OrderNumber="33"
  Mandatory="Yes"
 MethodOID="METHDEF143"
  Role="Analysis"
 />
<!-- ItemRef in data set ADLBH for variable PRTMSHI -->
 <ItemRef ItemOID="COL155"
  OrderNumber="34"
  Mandatory="Yes"
 MethodOID="METHDEF142"
  Role="Analysis"
 />
<!-- ItemRef in data set ADLBH for variable TRTP -->
 <ItemRef ItemOID="COL165"
  OrderNumber="35"
  Mandatory="Yes"
  Role="Analysis"
 />
<!-- ItemRef in data set ADLBH for variable TRTPCD -->
 <ItemRef ItemOID="COL166"
  OrderNumber="36"
  Mandatory="Yes"
  Role="Analysis"
 />
<!-- ItemRef in data set ADLBH for variable TRTPN -->
 <ItemRef ItemOID="COL167"
  OrderNumber="37"
  Mandatory="Yes"
  Role="Analysis"
 />
<!-- ItemRef in data set ADLBH for variable AGE -->
 <ItemRef ItemOID="COL114"
  OrderNumber="38"
  Mandatory="Yes"
  Role="Covariate"
 />
<!-- ItemRef in data set ADLBH for variable AGEGRP -->
 <ItemRef ItemOID="COL115"
  OrderNumber="39"
  Mandatory="Yes"
  Role="Covariate"
 />
<!-- ItemRef in data set ADLBH for variable AGEGRPN -->
 <ItemRef ItemOID="COL116"
  OrderNumber="40"
  Mandatory="Yes"
  Role="Covariate"
 />
<!-- ItemRef in data set ADLBH for variable RACE -->
 <ItemRef ItemOID="COL157"
  OrderNumber="41"
  Mandatory="Yes"
  Role="Covariate"
 />
<!-- ItemRef in data set ADLBH for variable RACEN -->
 <ItemRef ItemOID="COL158"
  OrderNumber="42"
  Mandatory="Yes"
  Role="Covariate"
 />
<!-- ItemRef in data set ADLBH for variable SEX -->
 <ItemRef ItemOID="COL161"
  OrderNumber="43"
  Mandatory="Yes"
  Role="Covariate Selection"
 />
<!-- ItemRef in data set ADLBH for variable BLLO -->
 <ItemRef ItemOID="COL119"
  OrderNumber="44"
  Mandatory="Yes"
 MethodOID="METHDEF120"
  Role="Analysis"
 />
<!-- ItemRef in data set ADLBH for variable BLHI -->
 <ItemRef ItemOID="COL118"
  OrderNumber="45"
  Mandatory="Yes"
 MethodOID="METHDEF119"
  Role="Analysis"
 />
<!-- ItemRef in data set ADLBH for variable LBSTNRLO -->
 <ItemRef ItemOID="COL138"
  OrderNumber="46"
  Mandatory="Yes"
  Role="Analysis"
 />
<!-- ItemRef in data set ADLBH for variable LBSTNRHI -->
 <ItemRef ItemOID="COL137"
  OrderNumber="47"
  Mandatory="Yes"
  Role="Analysis"
 />
<!-- ItemRef in data set ADLBH for variable PRLO -->
 <ItemRef ItemOID="COL153"
  OrderNumber="48"
  Mandatory="Yes"
 MethodOID="METHDEF140"
  Role="Analysis"
 />
<!-- ItemRef in data set ADLBH for variable PRHI -->
 <ItemRef ItemOID="COL152"
  OrderNumber="49"
  Mandatory="Yes"
 MethodOID="METHDEF139"
  Role="Analysis"
 />
<!-- ItemRef in data set ADLBH for variable SAFETY -->
 <ItemRef ItemOID="COL160"
  OrderNumber="50"
  Mandatory="Yes"
  Role="Selection"
 />
<!-- ItemRef in data set ADLBH for variable ITT -->
 <ItemRef ItemOID="COL130"
  OrderNumber="51"
  Mandatory="Yes"
  Role="Selection"
 />
<!-- ItemRef in data set ADLBH for variable EFFICACY -->
 <ItemRef ItemOID="COL128"
  OrderNumber="52"
  Mandatory="Yes"
  Role="Selection"
 />
<!-- ItemRef in data set ADLBH for variable COMPLT24 -->
 <ItemRef ItemOID="COL125"
  OrderNumber="53"
  Mandatory="Yes"
  Role="Selection"
 />
<!-- ItemRef in data set ADLBH for variable DSREASAE -->
 <ItemRef ItemOID="COL127"
  OrderNumber="54"
  Mandatory="Yes"
  Role="Selection"
 />
<!-- ItemRef in data set ADLBH for variable RANDDT -->
 <ItemRef ItemOID="COL159"
  OrderNumber="55"
  Mandatory="Yes"
  Role="Support"
 />
<!-- ItemRef in data set ADLBH for variable TRTSTDT -->
 <ItemRef ItemOID="COL168"
  OrderNumber="56"
  Mandatory="Yes"
  Role="Support"
 />
<!-- ItemRef in data set ADLBH for variable LSTDOSDT -->
 <ItemRef ItemOID="COL150"
  OrderNumber="57"
  Mandatory="Yes"
  Role="Support"
 />
<!-- ItemRef in data set ADLBH for variable TRTDUR -->
 <ItemRef ItemOID="COL164"
  OrderNumber="58"
  Mandatory="Yes"
  Role="Support"
 />
 <crt:leaf ID="Location.TABLE3" xlink:href="../analysis/adlbh.xpt">
 <crt:title>adlbh.xpt</crt:title>
 </crt:leaf>
</ItemGroupDef>
<!-- ************************************************************** -->
<!-- Defining ItemGroupDef for data set ADLBHY                    -->
<!-- ************************************************************** -->
<ItemGroupDef OID="TABLE4" Name="ADLBHY"
 Repeating="Yes"
 IsReferenceData="No"
 SASDatasetName="ADLBHY"
 Purpose="Analysis"
 crt:Label="Hy's Law Lab Analysis"
 crt:Structure="one record per visit per subject"
 crt:DomainKeys="USUBJID, VISITNUM"
 crt:Class="Analysis"
 crt:ArchiveLocationID="Location.TABLE4"
>
<!-- ItemRef in data set ADLBHY for variable USUBJID -->
 <ItemRef ItemOID="COL267"
  OrderNumber="1"
  Mandatory="Yes"
  KeySequence="1"
  Role="Identifier"
 />
<!-- ItemRef in data set ADLBHY for variable VISITNUM -->
 <ItemRef ItemOID="COL269"
  OrderNumber="2"
  Mandatory="Yes"
  KeySequence="2"
  Role="Timing"
 />
<!-- ItemRef in data set ADLBHY for variable STUDYID -->
 <ItemRef ItemOID="COL260"
  OrderNumber="3"
  Mandatory="Yes"
  Role="Identifier"
 />
<!-- ItemRef in data set ADLBHY for variable DOMAIN -->
 <ItemRef ItemOID="COL241"
  OrderNumber="4"
  Mandatory="Yes"
 MethodOID="METHDEF109"
  Role="Identifier"
 />
<!-- ItemRef in data set ADLBHY for variable SUBJID -->
 <ItemRef ItemOID="COL261"
  OrderNumber="5"
  Mandatory="Yes"
  Role="Identifier"
 />
<!-- ItemRef in data set ADLBHY for variable VISIT -->
 <ItemRef ItemOID="COL268"
  OrderNumber="6"
  Mandatory="Yes"
  Role="Timing"
 />
<!-- ItemRef in data set ADLBHY for variable ANLDY -->
 <ItemRef ItemOID="COL207"
  OrderNumber="7"
  Mandatory="Yes"
 MethodOID="METHDEF76"
  Role="Timing"
 />
<!-- ItemRef in data set ADLBHY for variable LBDT -->
 <ItemRef ItemOID="COL253"
  OrderNumber="8"
  Mandatory="Yes"
  Role="Timing"
 />
<!-- ItemRef in data set ADLBHY for variable ONTRTFL -->
 <ItemRef ItemOID="COL255"
  OrderNumber="9"
  Mandatory="Yes"
 MethodOID="METHDEF219"
  Role="Support"
 />
<!-- ItemRef in data set ADLBHY for variable HYLAWFL -->
 <ItemRef ItemOID="COL247"
  OrderNumber="10"
  Mandatory="Yes"
 MethodOID="METHDEF113"
  Role="Selection Analysis"
 />
<!-- ItemRef in data set ADLBHY for variable HYLBBIFL -->
 <ItemRef ItemOID="COL248"
  OrderNumber="11"
  Mandatory="Yes"
 MethodOID="METHDEF114"
  Role="Selection"
 />
<!-- ItemRef in data set ADLBHY for variable HYLBTRFL -->
 <ItemRef ItemOID="COL249"
  OrderNumber="12"
  Mandatory="Yes"
 MethodOID="METHDEF115"
  Role="Selection"
 />
<!-- ItemRef in data set ADLBHY for variable HYLAWBLF -->
 <ItemRef ItemOID="COL246"
  OrderNumber="13"
  Mandatory="Yes"
 MethodOID="METHDEF112"
  Role="Selection Analysis"
 />
<!-- ItemRef in data set ADLBHY for variable HYBLBIFL -->
 <ItemRef ItemOID="COL244"
  OrderNumber="14"
  Mandatory="Yes"
 MethodOID="METHDEF110"
  Role="Selection"
 />
<!-- ItemRef in data set ADLBHY for variable HYBLTRFL -->
 <ItemRef ItemOID="COL245"
  OrderNumber="15"
  Mandatory="Yes"
 MethodOID="METHDEF111"
  Role="Selection"
 />
<!-- ItemRef in data set ADLBHY for variable HYMXTRFL -->
 <ItemRef ItemOID="COL251"
  OrderNumber="16"
  Mandatory="Yes"
 MethodOID="METHDEF117"
  Role="Selection"
 />
<!-- ItemRef in data set ADLBHY for variable HYMXBIFL -->
 <ItemRef ItemOID="COL250"
  OrderNumber="17"
  Mandatory="Yes"
 MethodOID="METHDEF116"
  Role="Selection"
 />
<!-- ItemRef in data set ADLBHY for variable TRTP -->
 <ItemRef ItemOID="COL263"
  OrderNumber="18"
  Mandatory="Yes"
  Role="Analysis"
 />
<!-- ItemRef in data set ADLBHY for variable TRTPCD -->
 <ItemRef ItemOID="COL264"
  OrderNumber="19"
  Mandatory="Yes"
  Role="Analysis"
 />
<!-- ItemRef in data set ADLBHY for variable TRTPN -->
 <ItemRef ItemOID="COL265"
  OrderNumber="20"
  Mandatory="Yes"
  Role="Analysis"
 />
<!-- ItemRef in data set ADLBHY for variable AGE -->
 <ItemRef ItemOID="COL172"
  OrderNumber="21"
  Mandatory="Yes"
  Role="Covariate"
 />
<!-- ItemRef in data set ADLBHY for variable AGEGRP -->
 <ItemRef ItemOID="COL173"
  OrderNumber="22"
  Mandatory="Yes"
  Role="Covariate"
 />
<!-- ItemRef in data set ADLBHY for variable AGEGRPN -->
 <ItemRef ItemOID="COL174"
  OrderNumber="23"
  Mandatory="Yes"
  Role="Covariate"
 />
<!-- ItemRef in data set ADLBHY for variable RACE -->
 <ItemRef ItemOID="COL256"
  OrderNumber="24"
  Mandatory="Yes"
  Role="Covariate"
 />
<!-- ItemRef in data set ADLBHY for variable RACEN -->
 <ItemRef ItemOID="COL257"
  OrderNumber="25"
  Mandatory="Yes"
  Role="Covariate"
 />
<!-- ItemRef in data set ADLBHY for variable SEX -->
 <ItemRef ItemOID="COL259"
  OrderNumber="26"
  Mandatory="Yes"
  Role="Covariate Selection"
 />
<!-- ItemRef in data set ADLBHY for variable SAFETY -->
 <ItemRef ItemOID="COL258"
  OrderNumber="27"
  Mandatory="Yes"
  Role="Selection"
 />
<!-- ItemRef in data set ADLBHY for variable ITT -->
 <ItemRef ItemOID="COL252"
  OrderNumber="28"
  Mandatory="Yes"
  Role="Selection"
 />
<!-- ItemRef in data set ADLBHY for variable EFFICACY -->
 <ItemRef ItemOID="COL243"
  OrderNumber="29"
  Mandatory="Yes"
  Role="Selection"
 />
<!-- ItemRef in data set ADLBHY for variable COMPLT24 -->
 <ItemRef ItemOID="COL240"
  OrderNumber="30"
  Mandatory="Yes"
  Role="Selection"
 />
<!-- ItemRef in data set ADLBHY for variable DSREASAE -->
 <ItemRef ItemOID="COL242"
  OrderNumber="31"
  Mandatory="Yes"
  Role="Selection"
 />
<!-- ItemRef in data set ADLBHY for variable TRTSTDT -->
 <ItemRef ItemOID="COL266"
  OrderNumber="32"
  Mandatory="Yes"
  Role="Support"
 />
<!-- ItemRef in data set ADLBHY for variable LSTDOSDT -->
 <ItemRef ItemOID="COL254"
  OrderNumber="33"
  Mandatory="Yes"
  Role="Support"
 />
<!-- ItemRef in data set ADLBHY for variable TRTDUR -->
 <ItemRef ItemOID="COL262"
  OrderNumber="34"
  Mandatory="Yes"
  Role="Support"
 />
<!-- ItemRef in data set ADLBHY for variable ALPTRFL -->
 <ItemRef ItemOID="COL190"
  OrderNumber="35"
  Mandatory="Yes"
 MethodOID="METHDEF59"
  Role="Analysis"
 />
<!-- ItemRef in data set ADLBHY for variable ALPNRIND -->
 <ItemRef ItemOID="COL184"
  OrderNumber="36"
  Mandatory="Yes"
 MethodOID="METHDEF53"
  Role="Analysis"
 />
<!-- ItemRef in data set ADLBHY for variable ALPBLTRF -->
 <ItemRef ItemOID="COL180"
  OrderNumber="37"
  Mandatory="Yes"
 MethodOID="METHDEF49"
  Role="Analysis"
 />
<!-- ItemRef in data set ADLBHY for variable ALPRESN -->
 <ItemRef ItemOID="COL186"
  OrderNumber="38"
  Mandatory="Yes"
 MethodOID="METHDEF55"
  Role="Analysis"
 />
<!-- ItemRef in data set ADLBHY for variable ALPTMSLO -->
 <ItemRef ItemOID="COL189"
  OrderNumber="39"
  Mandatory="Yes"
 MethodOID="METHDEF58"
  Role="Analysis"
 />
<!-- ItemRef in data set ADLBHY for variable ALPTMSHI -->
 <ItemRef ItemOID="COL188"
  OrderNumber="40"
  Mandatory="Yes"
 MethodOID="METHDEF57"
  Role="Analysis"
 />
<!-- ItemRef in data set ADLBHY for variable ALPENTMT -->
 <ItemRef ItemOID="COL182"
  OrderNumber="41"
  Mandatory="Yes"
 MethodOID="METHDEF51"
  Role="Selection"
 />
<!-- ItemRef in data set ADLBHY for variable ALPBLRES -->
 <ItemRef ItemOID="COL177"
  OrderNumber="42"
  Mandatory="Yes"
 MethodOID="METHDEF46"
  Role="Analysis"
 />
<!-- ItemRef in data set ADLBHY for variable ALPBLTLO -->
 <ItemRef ItemOID="COL179"
  OrderNumber="43"
  Mandatory="Yes"
 MethodOID="METHDEF48"
  Role="Analysis"
 />
<!-- ItemRef in data set ADLBHY for variable ALPBLTHI -->
 <ItemRef ItemOID="COL178"
  OrderNumber="44"
  Mandatory="Yes"
 MethodOID="METHDEF47"
  Role="Analysis"
 />
<!-- ItemRef in data set ADLBHY for variable ALPCHRES -->
 <ItemRef ItemOID="COL181"
  OrderNumber="45"
  Mandatory="Yes"
 MethodOID="METHDEF50"
  Role="Analysis"
 />
<!-- ItemRef in data set ADLBHY for variable ALPRESU -->
 <ItemRef ItemOID="COL187"
  OrderNumber="46"
  Mandatory="Yes"
 MethodOID="METHDEF56"
  Role="Support"
 />
<!-- ItemRef in data set ADLBHY for variable ALPNRLO -->
 <ItemRef ItemOID="COL185"
  OrderNumber="47"
  Mandatory="Yes"
 MethodOID="METHDEF54"
  Role="Analysis"
 />
<!-- ItemRef in data set ADLBHY for variable ALPNRHI -->
 <ItemRef ItemOID="COL183"
  OrderNumber="48"
  Mandatory="Yes"
 MethodOID="METHDEF52"
  Role="Analysis"
 />
<!-- ItemRef in data set ADLBHY for variable ALPBLLO -->
 <ItemRef ItemOID="COL176"
  OrderNumber="49"
  Mandatory="Yes"
 MethodOID="METHDEF45"
  Role="Analysis"
 />
<!-- ItemRef in data set ADLBHY for variable ALPBLHI -->
 <ItemRef ItemOID="COL175"
  OrderNumber="50"
  Mandatory="Yes"
 MethodOID="METHDEF44"
  Role="Analysis"
 />
<!-- ItemRef in data set ADLBHY for variable ALTTRFL -->
 <ItemRef ItemOID="COL206"
  OrderNumber="51"
  Mandatory="Yes"
 MethodOID="METHDEF75"
  Role="Analysis"
 />
<!-- ItemRef in data set ADLBHY for variable ALTNRIND -->
 <ItemRef ItemOID="COL200"
  OrderNumber="52"
  Mandatory="Yes"
 MethodOID="METHDEF69"
  Role="Analysis"
 />
<!-- ItemRef in data set ADLBHY for variable ALTBLTRF -->
 <ItemRef ItemOID="COL196"
  OrderNumber="53"
  Mandatory="Yes"
 MethodOID="METHDEF65"
  Role="Analysis"
 />
<!-- ItemRef in data set ADLBHY for variable ALTRESN -->
 <ItemRef ItemOID="COL202"
  OrderNumber="54"
  Mandatory="Yes"
 MethodOID="METHDEF71"
  Role="Analysis"
 />
<!-- ItemRef in data set ADLBHY for variable ALTTMSLO -->
 <ItemRef ItemOID="COL205"
  OrderNumber="55"
  Mandatory="Yes"
 MethodOID="METHDEF74"
  Role="Analysis"
 />
<!-- ItemRef in data set ADLBHY for variable ALTTMSHI -->
 <ItemRef ItemOID="COL204"
  OrderNumber="56"
  Mandatory="Yes"
 MethodOID="METHDEF73"
  Role="Analysis"
 />
<!-- ItemRef in data set ADLBHY for variable ALTENTMT -->
 <ItemRef ItemOID="COL198"
  OrderNumber="57"
  Mandatory="Yes"
 MethodOID="METHDEF67"
  Role="Selection"
 />
<!-- ItemRef in data set ADLBHY for variable ALTBLRES -->
 <ItemRef ItemOID="COL193"
  OrderNumber="58"
  Mandatory="Yes"
 MethodOID="METHDEF62"
  Role="Analysis"
 />
<!-- ItemRef in data set ADLBHY for variable ALTBLTLO -->
 <ItemRef ItemOID="COL195"
  OrderNumber="59"
  Mandatory="Yes"
 MethodOID="METHDEF64"
  Role="Analysis"
 />
<!-- ItemRef in data set ADLBHY for variable ALTBLTHI -->
 <ItemRef ItemOID="COL194"
  OrderNumber="60"
  Mandatory="Yes"
 MethodOID="METHDEF63"
  Role="Analysis"
 />
<!-- ItemRef in data set ADLBHY for variable ALTCHRES -->
 <ItemRef ItemOID="COL197"
  OrderNumber="61"
  Mandatory="Yes"
 MethodOID="METHDEF66"
  Role="Analysis"
 />
<!-- ItemRef in data set ADLBHY for variable ALTRESU -->
 <ItemRef ItemOID="COL203"
  OrderNumber="62"
  Mandatory="Yes"
 MethodOID="METHDEF72"
  Role="Support"
 />
<!-- ItemRef in data set ADLBHY for variable ALTNRLO -->
 <ItemRef ItemOID="COL201"
  OrderNumber="63"
  Mandatory="Yes"
 MethodOID="METHDEF70"
  Role="Analysis"
 />
<!-- ItemRef in data set ADLBHY for variable ALTNRHI -->
 <ItemRef ItemOID="COL199"
  OrderNumber="64"
  Mandatory="Yes"
 MethodOID="METHDEF68"
  Role="Analysis"
 />
<!-- ItemRef in data set ADLBHY for variable ALTBLLO -->
 <ItemRef ItemOID="COL192"
  OrderNumber="65"
  Mandatory="Yes"
 MethodOID="METHDEF61"
  Role="Analysis"
 />
<!-- ItemRef in data set ADLBHY for variable ALTBLHI -->
 <ItemRef ItemOID="COL191"
  OrderNumber="66"
  Mandatory="Yes"
 MethodOID="METHDEF60"
  Role="Analysis"
 />
<!-- ItemRef in data set ADLBHY for variable ASTTRFL -->
 <ItemRef ItemOID="COL223"
  OrderNumber="67"
  Mandatory="Yes"
 MethodOID="METHDEF92"
  Role="Analysis"
 />
<!-- ItemRef in data set ADLBHY for variable ASTNRIND -->
 <ItemRef ItemOID="COL217"
  OrderNumber="68"
  Mandatory="Yes"
 MethodOID="METHDEF86"
  Role="Analysis"
 />
<!-- ItemRef in data set ADLBHY for variable ASTBLTRF -->
 <ItemRef ItemOID="COL213"
  OrderNumber="69"
  Mandatory="Yes"
 MethodOID="METHDEF82"
  Role="Analysis"
 />
<!-- ItemRef in data set ADLBHY for variable ASTRESN -->
 <ItemRef ItemOID="COL219"
  OrderNumber="70"
  Mandatory="Yes"
 MethodOID="METHDEF88"
  Role="Analysis"
 />
<!-- ItemRef in data set ADLBHY for variable ASTTMSLO -->
 <ItemRef ItemOID="COL222"
  OrderNumber="71"
  Mandatory="Yes"
 MethodOID="METHDEF91"
  Role="Analysis"
 />
<!-- ItemRef in data set ADLBHY for variable ASTTMSHI -->
 <ItemRef ItemOID="COL221"
  OrderNumber="72"
  Mandatory="Yes"
 MethodOID="METHDEF90"
  Role="Analysis"
 />
<!-- ItemRef in data set ADLBHY for variable ASTENTMT -->
 <ItemRef ItemOID="COL215"
  OrderNumber="73"
  Mandatory="Yes"
 MethodOID="METHDEF84"
  Role="Selection"
 />
<!-- ItemRef in data set ADLBHY for variable ASTBLRES -->
 <ItemRef ItemOID="COL210"
  OrderNumber="74"
  Mandatory="Yes"
 MethodOID="METHDEF79"
  Role="Analysis"
 />
<!-- ItemRef in data set ADLBHY for variable ASTBLTLO -->
 <ItemRef ItemOID="COL212"
  OrderNumber="75"
  Mandatory="Yes"
 MethodOID="METHDEF81"
  Role="Analysis"
 />
<!-- ItemRef in data set ADLBHY for variable ASTBLTHI -->
 <ItemRef ItemOID="COL211"
  OrderNumber="76"
  Mandatory="Yes"
 MethodOID="METHDEF80"
  Role="Analysis"
 />
<!-- ItemRef in data set ADLBHY for variable ASTCHRES -->
 <ItemRef ItemOID="COL214"
  OrderNumber="77"
  Mandatory="Yes"
 MethodOID="METHDEF83"
  Role="Analysis"
 />
<!-- ItemRef in data set ADLBHY for variable ASTRESU -->
 <ItemRef ItemOID="COL220"
  OrderNumber="78"
  Mandatory="Yes"
 MethodOID="METHDEF89"
  Role="Support"
 />
<!-- ItemRef in data set ADLBHY for variable ASTNRLO -->
 <ItemRef ItemOID="COL218"
  OrderNumber="79"
  Mandatory="Yes"
 MethodOID="METHDEF87"
  Role="Analysis"
 />
<!-- ItemRef in data set ADLBHY for variable ASTNRHI -->
 <ItemRef ItemOID="COL216"
  OrderNumber="80"
  Mandatory="Yes"
 MethodOID="METHDEF85"
  Role="Analysis"
 />
<!-- ItemRef in data set ADLBHY for variable ASTBLLO -->
 <ItemRef ItemOID="COL209"
  OrderNumber="81"
  Mandatory="Yes"
 MethodOID="METHDEF78"
  Role="Analysis"
 />
<!-- ItemRef in data set ADLBHY for variable ASTBLHI -->
 <ItemRef ItemOID="COL208"
  OrderNumber="82"
  Mandatory="Yes"
 MethodOID="METHDEF77"
  Role="Analysis"
 />
<!-- ItemRef in data set ADLBHY for variable BILTRFL -->
 <ItemRef ItemOID="COL239"
  OrderNumber="83"
  Mandatory="Yes"
 MethodOID="METHDEF108"
  Role="Analysis"
 />
<!-- ItemRef in data set ADLBHY for variable BILNRIND -->
 <ItemRef ItemOID="COL233"
  OrderNumber="84"
  Mandatory="Yes"
 MethodOID="METHDEF102"
  Role="Analysis"
 />
<!-- ItemRef in data set ADLBHY for variable BILBLTRF -->
 <ItemRef ItemOID="COL229"
  OrderNumber="85"
  Mandatory="Yes"
 MethodOID="METHDEF98"
  Role="Analysis"
 />
<!-- ItemRef in data set ADLBHY for variable BILRESN -->
 <ItemRef ItemOID="COL235"
  OrderNumber="86"
  Mandatory="Yes"
 MethodOID="METHDEF104"
  Role="Analysis"
 />
<!-- ItemRef in data set ADLBHY for variable BILTMSLO -->
 <ItemRef ItemOID="COL238"
  OrderNumber="87"
  Mandatory="Yes"
 MethodOID="METHDEF107"
  Role="Analysis"
 />
<!-- ItemRef in data set ADLBHY for variable BILTMSHI -->
 <ItemRef ItemOID="COL237"
  OrderNumber="88"
  Mandatory="Yes"
 MethodOID="METHDEF106"
  Role="Analysis"
 />
<!-- ItemRef in data set ADLBHY for variable BILENTMT -->
 <ItemRef ItemOID="COL231"
  OrderNumber="89"
  Mandatory="Yes"
 MethodOID="METHDEF100"
  Role="Selection"
 />
<!-- ItemRef in data set ADLBHY for variable BILBLRES -->
 <ItemRef ItemOID="COL226"
  OrderNumber="90"
  Mandatory="Yes"
 MethodOID="METHDEF95"
  Role="Analysis"
 />
<!-- ItemRef in data set ADLBHY for variable BILBLTLO -->
 <ItemRef ItemOID="COL228"
  OrderNumber="91"
  Mandatory="Yes"
 MethodOID="METHDEF97"
  Role="Analysis"
 />
<!-- ItemRef in data set ADLBHY for variable BILBLTHI -->
 <ItemRef ItemOID="COL227"
  OrderNumber="92"
  Mandatory="Yes"
 MethodOID="METHDEF96"
  Role="Analysis"
 />
<!-- ItemRef in data set ADLBHY for variable BILCHRES -->
 <ItemRef ItemOID="COL230"
  OrderNumber="93"
  Mandatory="Yes"
 MethodOID="METHDEF99"
  Role="Analysis"
 />
<!-- ItemRef in data set ADLBHY for variable BILRESU -->
 <ItemRef ItemOID="COL236"
  OrderNumber="94"
  Mandatory="Yes"
 MethodOID="METHDEF105"
  Role="Support"
 />
<!-- ItemRef in data set ADLBHY for variable BILNRLO -->
 <ItemRef ItemOID="COL234"
  OrderNumber="95"
  Mandatory="Yes"
 MethodOID="METHDEF103"
  Role="Analysis"
 />
<!-- ItemRef in data set ADLBHY for variable BILNRHI -->
 <ItemRef ItemOID="COL232"
  OrderNumber="96"
  Mandatory="Yes"
 MethodOID="METHDEF101"
  Role="Analysis"
 />
<!-- ItemRef in data set ADLBHY for variable BILBLLO -->
 <ItemRef ItemOID="COL225"
  OrderNumber="97"
  Mandatory="Yes"
 MethodOID="METHDEF94"
  Role="Analysis"
 />
<!-- ItemRef in data set ADLBHY for variable BILBLHI -->
 <ItemRef ItemOID="COL224"
  OrderNumber="98"
  Mandatory="Yes"
 MethodOID="METHDEF93"
  Role="Analysis"
 />
 <crt:leaf ID="Location.TABLE4" xlink:href="../analysis/adlbhy.xpt">
 <crt:title>adlbhy.xpt</crt:title>
 </crt:leaf>
</ItemGroupDef>
<!-- ************************************************************** -->
<!-- Defining ItemGroupDef for data set ADQSADAS                    -->
<!-- ************************************************************** -->
<ItemGroupDef OID="TABLE5" Name="ADQSADAS"
 Repeating="Yes"
 IsReferenceData="No"
 SASDatasetName="ADQSADAS"
 Purpose="Analysis"
 crt:Label="ADAS-Cog Analysis"
 crt:Structure="one record per parameter per analysis visit per subject"
 crt:DomainKeys="USUBJID, VISITNUM, AVISITN"
 crt:Class="Analysis"
 crt:ArchiveLocationID="Location.TABLE5"
>
<!-- ItemRef in data set ADQSADAS for variable USUBJID -->
 <ItemRef ItemOID="COL310"
  OrderNumber="1"
  Mandatory="Yes"
  KeySequence="1"
  Role="Identifier"
 />
<!-- ItemRef in data set ADQSADAS for variable VISITNUM -->
 <ItemRef ItemOID="COL315"
  OrderNumber="2"
  Mandatory="Yes"
  KeySequence="2"
  Role="Timing"
 />
<!-- ItemRef in data set ADQSADAS for variable AVISITN -->
 <ItemRef ItemOID="COL281"
  OrderNumber="3"
  Mandatory="Yes"
  KeySequence="3"
 MethodOID="METHDEF152"
  Role="Timing
Selection"
 />
<!-- ItemRef in data set ADQSADAS for variable STUDYID -->
 <ItemRef ItemOID="COL303"
  OrderNumber="4"
  Mandatory="Yes"
  Role="Identifier"
 />
<!-- ItemRef in data set ADQSADAS for variable DOMAIN -->
 <ItemRef ItemOID="COL288"
  OrderNumber="5"
  Mandatory="Yes"
 MethodOID="METHDEF156"
  Role="Identifier"
 />
<!-- ItemRef in data set ADQSADAS for variable SITEID -->
 <ItemRef ItemOID="COL302"
  OrderNumber="6"
  Mandatory="Yes"
  Role="Identifier"
 />
<!-- ItemRef in data set ADQSADAS for variable SITEGRP -->
 <ItemRef ItemOID="COL301"
  OrderNumber="7"
  Mandatory="Yes"
  Role="Identifier"
 />
<!-- ItemRef in data set ADQSADAS for variable SUBJID -->
 <ItemRef ItemOID="COL304"
  OrderNumber="8"
  Mandatory="Yes"
  Role="Identifier"
 />
<!-- ItemRef in data set ADQSADAS for variable AVISITC -->
 <ItemRef ItemOID="COL279"
  OrderNumber="9"
  Mandatory="Yes"
 MethodOID="METHDEF150"
  Role="Timing"
 />
<!-- ItemRef in data set ADQSADAS for variable VISIT -->
 <ItemRef ItemOID="COL312"
  OrderNumber="10"
  Mandatory="Yes"
  Role="Timing"
 />
<!-- ItemRef in data set ADQSADAS for variable AVISITCD -->
 <ItemRef ItemOID="COL280"
  OrderNumber="11"
  Mandatory="Yes"
 MethodOID="METHDEF151"
  Role="Timing"
 />
<!-- ItemRef in data set ADQSADAS for variable ANLDY -->
 <ItemRef ItemOID="COL278"
  OrderNumber="12"
  Mandatory="Yes"
 MethodOID="METHDEF149"
  Role="Timing"
 />
<!-- ItemRef in data set ADQSADAS for variable QSDY -->
 <ItemRef ItemOID="COL298"
  OrderNumber="13"
  Mandatory="Yes"
  Role="Timing"
 />
<!-- ItemRef in data set ADQSADAS for variable VISITDY -->
 <ItemRef ItemOID="COL314"
  OrderNumber="14"
  Mandatory="Yes"
  Role="Timing"
 />
<!-- ItemRef in data set ADQSADAS for variable AWEEK -->
 <ItemRef ItemOID="COL282"
  OrderNumber="15"
  Mandatory="Yes"
 MethodOID="METHDEF153"
  Role="Timing
Selection"
 />
<!-- ItemRef in data set ADQSADAS for variable VISITDT -->
 <ItemRef ItemOID="COL313"
  OrderNumber="16"
  Mandatory="Yes"
 MethodOID="METHDEF158"
  Role="Timing"
 />
<!-- ItemRef in data set ADQSADAS for variable QSDTC -->
 <ItemRef ItemOID="COL297"
  OrderNumber="17"
  Mandatory="Yes"
  Role="Timing"
 />
<!-- ItemRef in data set ADQSADAS for variable ITYPE -->
 <ItemRef ItemOID="COL292"
  OrderNumber="18"
  Mandatory="Yes"
 MethodOID="METHDEF218"
  Role="Selection"
 />
<!-- ItemRef in data set ADQSADAS for variable ITTV -->
 <ItemRef ItemOID="COL291"
  OrderNumber="19"
  Mandatory="Yes"
 MethodOID="METHDEF217"
  Role="Selection"
 />
<!-- ItemRef in data set ADQSADAS for variable PARAM -->
 <ItemRef ItemOID="COL295"
  OrderNumber="20"
  Mandatory="Yes"
 MethodOID="METHDEF220"
  Role="Result Qualifier"
 />
<!-- ItemRef in data set ADQSADAS for variable PARAMCD -->
 <ItemRef ItemOID="COL296"
  OrderNumber="21"
  Mandatory="Yes"
 MethodOID="METHDEF221"
  Role="Result Qualifier"
 />
<!-- ItemRef in data set ADQSADAS for variable VAL -->
 <ItemRef ItemOID="COL311"
  OrderNumber="22"
  Mandatory="Yes"
 MethodOID="METHDEF157"
  Role="Analysis"
 />
<!-- ItemRef in data set ADQSADAS for variable BASE -->
 <ItemRef ItemOID="COL283"
  OrderNumber="23"
  Mandatory="Yes"
 MethodOID="METHDEF154"
  Role="Covariate"
 />
<!-- ItemRef in data set ADQSADAS for variable CHG -->
 <ItemRef ItemOID="COL284"
  OrderNumber="24"
  Mandatory="Yes"
 MethodOID="METHDEF155"
  Role="Analysis"
 />
<!-- ItemRef in data set ADQSADAS for variable TRTP -->
 <ItemRef ItemOID="COL306"
  OrderNumber="25"
  Mandatory="Yes"
  Role="Analysis"
 />
<!-- ItemRef in data set ADQSADAS for variable TRTPCD -->
 <ItemRef ItemOID="COL307"
  OrderNumber="26"
  Mandatory="Yes"
  Role="Analysis"
 />
<!-- ItemRef in data set ADQSADAS for variable TRTPN -->
 <ItemRef ItemOID="COL308"
  OrderNumber="27"
  Mandatory="Yes"
  Role="Analysis"
 />
<!-- ItemRef in data set ADQSADAS for variable TRTDOSE -->
 <ItemRef ItemOID="COL305"
  OrderNumber="28"
  Mandatory="Yes"
  Role="Analysis"
 />
<!-- ItemRef in data set ADQSADAS for variable AGE -->
 <ItemRef ItemOID="COL275"
  OrderNumber="29"
  Mandatory="Yes"
  Role="Covariate"
 />
<!-- ItemRef in data set ADQSADAS for variable AGEGRP -->
 <ItemRef ItemOID="COL276"
  OrderNumber="30"
  Mandatory="Yes"
  Role="Covariate"
 />
<!-- ItemRef in data set ADQSADAS for variable AGEGRPN -->
 <ItemRef ItemOID="COL277"
  OrderNumber="31"
  Mandatory="Yes"
  Role="Covariate"
 />
<!-- ItemRef in data set ADQSADAS for variable SEX -->
 <ItemRef ItemOID="COL300"
  OrderNumber="32"
  Mandatory="Yes"
  Role="Covariate Selection"
 />
<!-- ItemRef in data set ADQSADAS for variable SAFETY -->
 <ItemRef ItemOID="COL299"
  OrderNumber="33"
  Mandatory="Yes"
  Role="Selection"
 />
<!-- ItemRef in data set ADQSADAS for variable ITT -->
 <ItemRef ItemOID="COL290"
  OrderNumber="34"
  Mandatory="Yes"
  Role="Selection"
 />
<!-- ItemRef in data set ADQSADAS for variable EFFICACY -->
 <ItemRef ItemOID="COL289"
  OrderNumber="35"
  Mandatory="Yes"
  Role="Selection"
 />
<!-- ItemRef in data set ADQSADAS for variable COMPLT24 -->
 <ItemRef ItemOID="COL286"
  OrderNumber="36"
  Mandatory="Yes"
  Role="Selection"
 />
<!-- ItemRef in data set ADQSADAS for variable COMPLT16 -->
 <ItemRef ItemOID="COL285"
  OrderNumber="37"
  Mandatory="Yes"
  Role="Selection"
 />
<!-- ItemRef in data set ADQSADAS for variable COMPLT8 -->
 <ItemRef ItemOID="COL287"
  OrderNumber="38"
  Mandatory="Yes"
  Role="Selection"
 />
<!-- ItemRef in data set ADQSADAS for variable ONTRTFL -->
 <ItemRef ItemOID="COL294"
  OrderNumber="39"
  Mandatory="Yes"
 MethodOID="METHDEF219"
  Role="Support"
 />
<!-- ItemRef in data set ADQSADAS for variable TRTSTDT -->
 <ItemRef ItemOID="COL309"
  OrderNumber="40"
  Mandatory="Yes"
  Role="Support"
 />
<!-- ItemRef in data set ADQSADAS for variable LSTDOSDT -->
 <ItemRef ItemOID="COL293"
  OrderNumber="41"
  Mandatory="Yes"
  Role="Support"
 />
<!-- ItemRef in data set ADQSADAS for variable ADD_REC -->
 <ItemRef ItemOID="COL270"
  OrderNumber="42"
  Mandatory="Yes"
 MethodOID="METHDEF144"
  Role="Support"
 />
<!-- ItemRef in data set ADQSADAS for variable AFLNOBS -->
 <ItemRef ItemOID="COL273"
  OrderNumber="43"
  Mandatory="Yes"
 MethodOID="METHDEF147"
  Role="Support"
 />
<!-- ItemRef in data set ADQSADAS for variable AFLNELIG -->
 <ItemRef ItemOID="COL271"
  OrderNumber="44"
  Mandatory="Yes"
 MethodOID="METHDEF145"
  Role="Support"
 />
<!-- ItemRef in data set ADQSADAS for variable AFLNWIN -->
 <ItemRef ItemOID="COL274"
  OrderNumber="45"
  Mandatory="Yes"
 MethodOID="METHDEF148"
  Role="Support"
 />
<!-- ItemRef in data set ADQSADAS for variable AFLNLOCF -->
 <ItemRef ItemOID="COL272"
  OrderNumber="46"
  Mandatory="Yes"
 MethodOID="METHDEF146"
  Role="Support"
 />
 <crt:leaf ID="Location.TABLE5" xlink:href="../analysis/adqsadas.xpt">
 <crt:title>adqsadas.xpt</crt:title>
 </crt:leaf>
</ItemGroupDef>
<!-- ************************************************************** -->
<!-- Defining ItemGroupDef for data set ADQSCIBC                    -->
<!-- ************************************************************** -->
<ItemGroupDef OID="TABLE6" Name="ADQSCIBC"
 Repeating="Yes"
 IsReferenceData="No"
 SASDatasetName="ADQSCIBC"
 Purpose="Analysis"
 crt:Label="CIBIC+ Analysis"
 crt:Structure="one record per parameter per analysis visit per subject"
 crt:DomainKeys="USUBJID, VISITNUM, AVISITN"
 crt:Class="Analysis"
 crt:ArchiveLocationID="Location.TABLE6"
>
<!-- ItemRef in data set ADQSCIBC for variable USUBJID -->
 <ItemRef ItemOID="COL354"
  OrderNumber="1"
  Mandatory="Yes"
  KeySequence="1"
  Role="Identifier"
 />
<!-- ItemRef in data set ADQSCIBC for variable VISITNUM -->
 <ItemRef ItemOID="COL359"
  OrderNumber="2"
  Mandatory="Yes"
  KeySequence="2"
  Role="Timing"
 />
<!-- ItemRef in data set ADQSCIBC for variable AVISITN -->
 <ItemRef ItemOID="COL327"
  OrderNumber="3"
  Mandatory="Yes"
  KeySequence="3"
 MethodOID="METHDEF167"
  Role="Timing
Selection"
 />
<!-- ItemRef in data set ADQSCIBC for variable STUDYID -->
 <ItemRef ItemOID="COL347"
  OrderNumber="4"
  Mandatory="Yes"
  Role="Identifier"
 />
<!-- ItemRef in data set ADQSCIBC for variable DOMAIN -->
 <ItemRef ItemOID="COL332"
  OrderNumber="5"
  Mandatory="Yes"
 MethodOID="METHDEF169"
  Role="Identifier"
 />
<!-- ItemRef in data set ADQSCIBC for variable SITEID -->
 <ItemRef ItemOID="COL346"
  OrderNumber="6"
  Mandatory="Yes"
  Role="Identifier"
 />
<!-- ItemRef in data set ADQSCIBC for variable SITEGRP -->
 <ItemRef ItemOID="COL345"
  OrderNumber="7"
  Mandatory="Yes"
  Role="Identifier"
 />
<!-- ItemRef in data set ADQSCIBC for variable SUBJID -->
 <ItemRef ItemOID="COL348"
  OrderNumber="8"
  Mandatory="Yes"
  Role="Identifier"
 />
<!-- ItemRef in data set ADQSCIBC for variable AVISITC -->
 <ItemRef ItemOID="COL325"
  OrderNumber="9"
  Mandatory="Yes"
 MethodOID="METHDEF165"
  Role="Timing"
 />
<!-- ItemRef in data set ADQSCIBC for variable VISIT -->
 <ItemRef ItemOID="COL356"
  OrderNumber="10"
  Mandatory="Yes"
  Role="Timing"
 />
<!-- ItemRef in data set ADQSCIBC for variable AVISITCD -->
 <ItemRef ItemOID="COL326"
  OrderNumber="11"
  Mandatory="Yes"
 MethodOID="METHDEF166"
  Role="Timing"
 />
<!-- ItemRef in data set ADQSCIBC for variable ANLDY -->
 <ItemRef ItemOID="COL324"
  OrderNumber="12"
  Mandatory="Yes"
 MethodOID="METHDEF164"
  Role="Timing"
 />
<!-- ItemRef in data set ADQSCIBC for variable QSDY -->
 <ItemRef ItemOID="COL342"
  OrderNumber="13"
  Mandatory="Yes"
  Role="Timing"
 />
<!-- ItemRef in data set ADQSCIBC for variable VISITDY -->
 <ItemRef ItemOID="COL358"
  OrderNumber="14"
  Mandatory="Yes"
  Role="Timing"
 />
<!-- ItemRef in data set ADQSCIBC for variable AWEEK -->
 <ItemRef ItemOID="COL328"
  OrderNumber="15"
  Mandatory="Yes"
 MethodOID="METHDEF168"
  Role="Selection"
 />
<!-- ItemRef in data set ADQSCIBC for variable VISITDT -->
 <ItemRef ItemOID="COL357"
  OrderNumber="16"
  Mandatory="Yes"
 MethodOID="METHDEF171"
  Role="Timing"
 />
<!-- ItemRef in data set ADQSCIBC for variable QSDTC -->
 <ItemRef ItemOID="COL341"
  OrderNumber="17"
  Mandatory="Yes"
  Role="Timing"
 />
<!-- ItemRef in data set ADQSCIBC for variable ITYPE -->
 <ItemRef ItemOID="COL336"
  OrderNumber="18"
  Mandatory="Yes"
 MethodOID="METHDEF218"
  Role="Selection"
 />
<!-- ItemRef in data set ADQSCIBC for variable ITTV -->
 <ItemRef ItemOID="COL335"
  OrderNumber="19"
  Mandatory="Yes"
 MethodOID="METHDEF217"
  Role="Selection"
 />
<!-- ItemRef in data set ADQSCIBC for variable PARAM -->
 <ItemRef ItemOID="COL339"
  OrderNumber="20"
  Mandatory="Yes"
 MethodOID="METHDEF220"
  Role="Result Qualifier"
 />
<!-- ItemRef in data set ADQSCIBC for variable PARAMCD -->
 <ItemRef ItemOID="COL340"
  OrderNumber="21"
  Mandatory="Yes"
 MethodOID="METHDEF221"
  Role="Result Qualifier"
 />
<!-- ItemRef in data set ADQSCIBC for variable VAL -->
 <ItemRef ItemOID="COL355"
  OrderNumber="22"
  Mandatory="Yes"
 MethodOID="METHDEF170"
  Role="Analysis"
 />
<!-- ItemRef in data set ADQSCIBC for variable TRTP -->
 <ItemRef ItemOID="COL350"
  OrderNumber="23"
  Mandatory="Yes"
  Role="Analysis"
 />
<!-- ItemRef in data set ADQSCIBC for variable TRTPCD -->
 <ItemRef ItemOID="COL351"
  OrderNumber="24"
  Mandatory="Yes"
  Role="Analysis"
 />
<!-- ItemRef in data set ADQSCIBC for variable TRTPN -->
 <ItemRef ItemOID="COL352"
  OrderNumber="25"
  Mandatory="Yes"
  Role="Analysis"
 />
<!-- ItemRef in data set ADQSCIBC for variable TRTDOSE -->
 <ItemRef ItemOID="COL349"
  OrderNumber="26"
  Mandatory="Yes"
  Role="Analysis"
 />
<!-- ItemRef in data set ADQSCIBC for variable AGE -->
 <ItemRef ItemOID="COL321"
  OrderNumber="27"
  Mandatory="Yes"
  Role="Covariate"
 />
<!-- ItemRef in data set ADQSCIBC for variable AGEGRP -->
 <ItemRef ItemOID="COL322"
  OrderNumber="28"
  Mandatory="Yes"
  Role="Covariate"
 />
<!-- ItemRef in data set ADQSCIBC for variable AGEGRPN -->
 <ItemRef ItemOID="COL323"
  OrderNumber="29"
  Mandatory="Yes"
  Role="Covariate"
 />
<!-- ItemRef in data set ADQSCIBC for variable SEX -->
 <ItemRef ItemOID="COL344"
  OrderNumber="30"
  Mandatory="Yes"
  Role="Covariate Selection"
 />
<!-- ItemRef in data set ADQSCIBC for variable SAFETY -->
 <ItemRef ItemOID="COL343"
  OrderNumber="31"
  Mandatory="Yes"
  Role="Selection"
 />
<!-- ItemRef in data set ADQSCIBC for variable ITT -->
 <ItemRef ItemOID="COL334"
  OrderNumber="32"
  Mandatory="Yes"
  Role="Selection"
 />
<!-- ItemRef in data set ADQSCIBC for variable EFFICACY -->
 <ItemRef ItemOID="COL333"
  OrderNumber="33"
  Mandatory="Yes"
  Role="Selection"
 />
<!-- ItemRef in data set ADQSCIBC for variable COMPLT24 -->
 <ItemRef ItemOID="COL330"
  OrderNumber="34"
  Mandatory="Yes"
  Role="Selection"
 />
<!-- ItemRef in data set ADQSCIBC for variable COMPLT16 -->
 <ItemRef ItemOID="COL329"
  OrderNumber="35"
  Mandatory="Yes"
  Role="Selection"
 />
<!-- ItemRef in data set ADQSCIBC for variable COMPLT8 -->
 <ItemRef ItemOID="COL331"
  OrderNumber="36"
  Mandatory="Yes"
  Role="Selection"
 />
<!-- ItemRef in data set ADQSCIBC for variable ONTRTFL -->
 <ItemRef ItemOID="COL338"
  OrderNumber="37"
  Mandatory="Yes"
 MethodOID="METHDEF219"
  Role="Support"
 />
<!-- ItemRef in data set ADQSCIBC for variable TRTSTDT -->
 <ItemRef ItemOID="COL353"
  OrderNumber="38"
  Mandatory="Yes"
  Role="Support"
 />
<!-- ItemRef in data set ADQSCIBC for variable LSTDOSDT -->
 <ItemRef ItemOID="COL337"
  OrderNumber="39"
  Mandatory="Yes"
  Role="Support"
 />
<!-- ItemRef in data set ADQSCIBC for variable ADD_REC -->
 <ItemRef ItemOID="COL316"
  OrderNumber="40"
  Mandatory="Yes"
 MethodOID="METHDEF159"
  Role="Support"
 />
<!-- ItemRef in data set ADQSCIBC for variable AFLNOBS -->
 <ItemRef ItemOID="COL319"
  OrderNumber="41"
  Mandatory="Yes"
 MethodOID="METHDEF162"
  Role="Support"
 />
<!-- ItemRef in data set ADQSCIBC for variable AFLNELIG -->
 <ItemRef ItemOID="COL317"
  OrderNumber="42"
  Mandatory="Yes"
 MethodOID="METHDEF160"
  Role="Support"
 />
<!-- ItemRef in data set ADQSCIBC for variable AFLNWIN -->
 <ItemRef ItemOID="COL320"
  OrderNumber="43"
  Mandatory="Yes"
 MethodOID="METHDEF163"
  Role="Support"
 />
<!-- ItemRef in data set ADQSCIBC for variable AFLNLOCF -->
 <ItemRef ItemOID="COL318"
  OrderNumber="44"
  Mandatory="Yes"
 MethodOID="METHDEF161"
  Role="Support"
 />
 <crt:leaf ID="Location.TABLE6" xlink:href="../analysis/adqscibc.xpt">
 <crt:title>adqscibc.xpt</crt:title>
 </crt:leaf>
</ItemGroupDef>
<!-- ************************************************************** -->
<!-- Defining ItemGroupDef for data set ADQSNPIX                    -->
<!-- ************************************************************** -->
<ItemGroupDef OID="TABLE7" Name="ADQSNPIX"
 Repeating="Yes"
 IsReferenceData="No"
 SASDatasetName="ADQSNPIX"
 Purpose="Analysis"
 crt:Label="NPIX Analysis"
 crt:Structure="
Analysis dataset standards are still evolving, and most of the datasets from the original submission have been revised to follow that evolution.  However, this dataset has not been revised, and it was decided that the dataset and associated metadata not be
 included in the published package."
 crt:DomainKeys="USUBJID"
 crt:Class="Analysis"
 crt:ArchiveLocationID="Location.TABLE7"
>
<!-- ItemRef in data set ADQSNPIX for variable USUBJID -->
 <ItemRef ItemOID="COL360"
  OrderNumber="1"
  Mandatory="Yes"
  KeySequence="1"
 MethodOID="METHDEF172"
  Role="Identifier"
 />
 <crt:leaf ID="Location.TABLE7" xlink:href="../analysis/adqsnpix.xpt">
 <crt:title>adqsnpix.xpt</crt:title>
 </crt:leaf>
</ItemGroupDef>
<!-- ************************************************************** -->
<!-- Defining ItemGroupDef for data set ADSL                    -->
<!-- ************************************************************** -->
<ItemGroupDef OID="TABLE8" Name="ADSL"
 Repeating="No"
 IsReferenceData="No"
 SASDatasetName="ADSL"
 Purpose="Analysis"
 crt:Label="Demog. and Baseline Char. Analysis"
 crt:Structure="one record per subject"
 crt:DomainKeys="USUBJID"
 crt:Class="Analysis"
 crt:ArchiveLocationID="Location.TABLE8"
>
<!-- ItemRef in data set ADSL for variable USUBJID -->
 <ItemRef ItemOID="COL408"
  OrderNumber="1"
  Mandatory="Yes"
  KeySequence="1"
  Role="Identifier"
 />
<!-- ItemRef in data set ADSL for variable STUDYID -->
 <ItemRef ItemOID="COL400"
  OrderNumber="2"
  Mandatory="Yes"
  Role="Identifier"
 />
<!-- ItemRef in data set ADSL for variable DOMAIN -->
 <ItemRef ItemOID="COL378"
  OrderNumber="3"
  Mandatory="Yes"
 MethodOID="METHDEF186"
  Role="Identifier"
 />
<!-- ItemRef in data set ADSL for variable SITEID -->
 <ItemRef ItemOID="COL399"
  OrderNumber="4"
  Mandatory="Yes"
  Role="Identifier"
 />
<!-- ItemRef in data set ADSL for variable SITEGRP -->
 <ItemRef ItemOID="COL398"
  OrderNumber="5"
  Mandatory="Yes"
 MethodOID="METHDEF201"
  Role="Identifier"
 />
<!-- ItemRef in data set ADSL for variable SUBJID -->
 <ItemRef ItemOID="COL401"
  OrderNumber="6"
  Mandatory="Yes"
  Role="Identifier"
 />
<!-- ItemRef in data set ADSL for variable VISIT1DT -->
 <ItemRef ItemOID="COL409"
  OrderNumber="7"
  Mandatory="Yes"
 MethodOID="METHDEF208"
  Role="Support"
 />
<!-- ItemRef in data set ADSL for variable RANDDT -->
 <ItemRef ItemOID="COL393"
  OrderNumber="8"
  Mandatory="Yes"
 MethodOID="METHDEF199"
  Role="Support"
 />
<!-- ItemRef in data set ADSL for variable TRTSTDT -->
 <ItemRef ItemOID="COL407"
  OrderNumber="9"
  Mandatory="Yes"
 MethodOID="METHDEF207"
  Role="Support"
 />
<!-- ItemRef in data set ADSL for variable RFSTDTC -->
 <ItemRef ItemOID="COL395"
  OrderNumber="10"
  Mandatory="Yes"
  Role="Support"
 />
<!-- ItemRef in data set ADSL for variable LSTDOSDT -->
 <ItemRef ItemOID="COL389"
  OrderNumber="11"
  Mandatory="Yes"
 MethodOID="METHDEF196"
  Role="Support"
 />
<!-- ItemRef in data set ADSL for variable ENDDT -->
 <ItemRef ItemOID="COL386"
  OrderNumber="12"
  Mandatory="Yes"
 MethodOID="METHDEF193"
  Role="Support"
 />
<!-- ItemRef in data set ADSL for variable RFENDTC -->
 <ItemRef ItemOID="COL394"
  OrderNumber="13"
  Mandatory="Yes"
  Role="Support"
 />
<!-- ItemRef in data set ADSL for variable VISNUMEN -->
 <ItemRef ItemOID="COL410"
  OrderNumber="14"
  Mandatory="Yes"
 MethodOID="METHDEF209"
  Role="Support"
 />
<!-- ItemRef in data set ADSL for variable DISCONT -->
 <ItemRef ItemOID="COL376"
  OrderNumber="15"
  Mandatory="Yes"
 MethodOID="METHDEF184"
  Role="Analysis"
 />
<!-- ItemRef in data set ADSL for variable DSDECOD -->
 <ItemRef ItemOID="COL379"
  OrderNumber="16"
  Mandatory="Yes"
  Role="Analysis"
 />
<!-- ItemRef in data set ADSL for variable DSREASAE -->
 <ItemRef ItemOID="COL380"
  OrderNumber="17"
  Mandatory="Yes"
 MethodOID="METHDEF187"
  Role="Analysis"
 />
<!-- ItemRef in data set ADSL for variable DSREASCD -->
 <ItemRef ItemOID="COL381"
  OrderNumber="18"
  Mandatory="Yes"
 MethodOID="METHDEF188"
  Role="Analysis"
 />
<!-- ItemRef in data set ADSL for variable DEATH -->
 <ItemRef ItemOID="COL375"
  OrderNumber="19"
  Mandatory="Yes"
 MethodOID="METHDEF183"
  Role="Selection"
 />
<!-- ItemRef in data set ADSL for variable TRTDUR -->
 <ItemRef ItemOID="COL403"
  OrderNumber="20"
  Mandatory="Yes"
 MethodOID="METHDEF203"
  Role="Support"
 />
<!-- ItemRef in data set ADSL for variable TRTP -->
 <ItemRef ItemOID="COL404"
  OrderNumber="21"
  Mandatory="Yes"
 MethodOID="METHDEF204"
  Role="Analysis"
 />
<!-- ItemRef in data set ADSL for variable TRTPCD -->
 <ItemRef ItemOID="COL405"
  OrderNumber="22"
  Mandatory="Yes"
 MethodOID="METHDEF205"
  Role="Analysis"
 />
<!-- ItemRef in data set ADSL for variable TRTPN -->
 <ItemRef ItemOID="COL406"
  OrderNumber="23"
  Mandatory="Yes"
 MethodOID="METHDEF206"
  Role="Analysis"
 />
<!-- ItemRef in data set ADSL for variable TRTDOSE -->
 <ItemRef ItemOID="COL402"
  OrderNumber="24"
  Mandatory="Yes"
 MethodOID="METHDEF202"
  Role="Analysis"
 />
<!-- ItemRef in data set ADSL for variable AVGDD -->
 <ItemRef ItemOID="COL368"
  OrderNumber="25"
  Mandatory="Yes"
 MethodOID="METHDEF176"
  Role="Analysis"
 />
<!-- ItemRef in data set ADSL for variable CUMDOSE -->
 <ItemRef ItemOID="COL374"
  OrderNumber="26"
  Mandatory="Yes"
 MethodOID="METHDEF182"
  Role="Analysis"
 />
<!-- ItemRef in data set ADSL for variable ARM -->
 <ItemRef ItemOID="COL365"
  OrderNumber="27"
  Mandatory="Yes"
  Role="Analysis"
 />
<!-- ItemRef in data set ADSL for variable ARMCD -->
 <ItemRef ItemOID="COL366"
  OrderNumber="28"
  Mandatory="Yes"
  Role="Analysis"
 />
<!-- ItemRef in data set ADSL for variable ARMN -->
 <ItemRef ItemOID="COL367"
  OrderNumber="29"
  Mandatory="Yes"
 MethodOID="METHDEF175"
  Role="Analysis"
 />
<!-- ItemRef in data set ADSL for variable AGE -->
 <ItemRef ItemOID="COL361"
  OrderNumber="30"
  Mandatory="Yes"
  Role="Covariate"
 />
<!-- ItemRef in data set ADSL for variable AGEGRP -->
 <ItemRef ItemOID="COL362"
  OrderNumber="31"
  Mandatory="Yes"
 MethodOID="METHDEF173"
  Role="Covariate"
 />
<!-- ItemRef in data set ADSL for variable AGEGRPN -->
 <ItemRef ItemOID="COL363"
  OrderNumber="32"
  Mandatory="Yes"
 MethodOID="METHDEF174"
  Role="Covariate"
 />
<!-- ItemRef in data set ADSL for variable AGEU -->
 <ItemRef ItemOID="COL364"
  OrderNumber="33"
  Mandatory="Yes"
  Role="Support"
 />
<!-- ItemRef in data set ADSL for variable RACE -->
 <ItemRef ItemOID="COL391"
  OrderNumber="34"
  Mandatory="Yes"
  Role="Covariate"
 />
<!-- ItemRef in data set ADSL for variable RACEN -->
 <ItemRef ItemOID="COL392"
  OrderNumber="35"
  Mandatory="Yes"
 MethodOID="METHDEF198"
  Role="Covariate"
 />
<!-- ItemRef in data set ADSL for variable SEX -->
 <ItemRef ItemOID="COL397"
  OrderNumber="36"
  Mandatory="Yes"
  Role="Covariate Selection"
 />
<!-- ItemRef in data set ADSL for variable BMIBL -->
 <ItemRef ItemOID="COL369"
  OrderNumber="37"
  Mandatory="Yes"
 MethodOID="METHDEF177"
  Role="Covariate"
 />
<!-- ItemRef in data set ADSL for variable BMIBLGRP -->
 <ItemRef ItemOID="COL370"
  OrderNumber="38"
  Mandatory="Yes"
 MethodOID="METHDEF178"
  Role="Covariate"
 />
<!-- ItemRef in data set ADSL for variable DISONSET -->
 <ItemRef ItemOID="COL377"
  OrderNumber="39"
  Mandatory="Yes"
 MethodOID="METHDEF185"
  Role="Support"
 />
<!-- ItemRef in data set ADSL for variable DURDIS -->
 <ItemRef ItemOID="COL382"
  OrderNumber="40"
  Mandatory="Yes"
 MethodOID="METHDEF189"
  Role="Covariate"
 />
<!-- ItemRef in data set ADSL for variable DURDISGR -->
 <ItemRef ItemOID="COL383"
  OrderNumber="41"
  Mandatory="Yes"
 MethodOID="METHDEF190"
  Role="Covariate"
 />
<!-- ItemRef in data set ADSL for variable EDUCLVL -->
 <ItemRef ItemOID="COL384"
  OrderNumber="42"
  Mandatory="Yes"
 MethodOID="METHDEF191"
  Role="Covariate"
 />
<!-- ItemRef in data set ADSL for variable HEIGHTBL -->
 <ItemRef ItemOID="COL387"
  OrderNumber="43"
  Mandatory="Yes"
 MethodOID="METHDEF194"
  Role="Support"
 />
<!-- ItemRef in data set ADSL for variable MMSETOT -->
 <ItemRef ItemOID="COL390"
  OrderNumber="44"
  Mandatory="Yes"
 MethodOID="METHDEF197"
  Role="Covariate"
 />
<!-- ItemRef in data set ADSL for variable WEIGHTBL -->
 <ItemRef ItemOID="COL411"
  OrderNumber="45"
  Mandatory="Yes"
 MethodOID="METHDEF210"
  Role="Covariate Support"
 />
<!-- ItemRef in data set ADSL for variable SAFETY -->
 <ItemRef ItemOID="COL396"
  OrderNumber="46"
  Mandatory="Yes"
 MethodOID="METHDEF200"
  Role="Selection"
 />
<!-- ItemRef in data set ADSL for variable ITT -->
 <ItemRef ItemOID="COL388"
  OrderNumber="47"
  Mandatory="Yes"
 MethodOID="METHDEF195"
  Role="Selection"
 />
<!-- ItemRef in data set ADSL for variable EFFICACY -->
 <ItemRef ItemOID="COL385"
  OrderNumber="48"
  Mandatory="Yes"
 MethodOID="METHDEF192"
  Role="Selection"
 />
<!-- ItemRef in data set ADSL for variable COMPLT24 -->
 <ItemRef ItemOID="COL372"
  OrderNumber="49"
  Mandatory="Yes"
 MethodOID="METHDEF180"
  Role="Selection"
 />
<!-- ItemRef in data set ADSL for variable COMPLT16 -->
 <ItemRef ItemOID="COL371"
  OrderNumber="50"
  Mandatory="Yes"
 MethodOID="METHDEF179"
  Role="Selection"
 />
<!-- ItemRef in data set ADSL for variable COMPLT8 -->
 <ItemRef ItemOID="COL373"
  OrderNumber="51"
  Mandatory="Yes"
 MethodOID="METHDEF181"
  Role="Selection"
 />
 <crt:leaf ID="Location.TABLE8" xlink:href="../analysis/adsl.xpt">
 <crt:title>adsl.xpt</crt:title>
 </crt:leaf>
</ItemGroupDef>
<!-- ************************************************************** -->
<!-- Defining ItemGroupDef for data set ADTTE                    -->
<!-- ************************************************************** -->
<ItemGroupDef OID="TABLE9" Name="ADTTE"
 Repeating="No"
 IsReferenceData="No"
 SASDatasetName="ADTTE"
 Purpose="Analysis"
 crt:Label="AE Time To 1st Derm.  Event Analysis"
 crt:Structure="one record per subject"
 crt:DomainKeys="USUBJID"
 crt:Class="Analysis"
 crt:ArchiveLocationID="Location.TABLE9"
>
<!-- ItemRef in data set ADTTE for variable USUBJID -->
 <ItemRef ItemOID="COL435"
  OrderNumber="1"
  Mandatory="Yes"
  KeySequence="1"
  Role="Identifier"
 />
<!-- ItemRef in data set ADTTE for variable STUDYID -->
 <ItemRef ItemOID="COL426"
  OrderNumber="2"
  Mandatory="Yes"
  Role="Identifier"
 />
<!-- ItemRef in data set ADTTE for variable DOMAIN -->
 <ItemRef ItemOID="COL417"
  OrderNumber="3"
  Mandatory="Yes"
 MethodOID="METHDEF211"
  Role="Identifier"
 />
<!-- ItemRef in data set ADTTE for variable SITEID -->
 <ItemRef ItemOID="COL425"
  OrderNumber="4"
  Mandatory="Yes"
  Role="Identifier"
 />
<!-- ItemRef in data set ADTTE for variable SUBJID -->
 <ItemRef ItemOID="COL427"
  OrderNumber="5"
  Mandatory="Yes"
  Role="Identifier"
 />
<!-- ItemRef in data set ADTTE for variable TTP -->
 <ItemRef ItemOID="COL432"
  OrderNumber="6"
  Mandatory="Yes"
 MethodOID="METHDEF212"
  Role="analysis"
 />
<!-- ItemRef in data set ADTTE for variable TTPU -->
 <ItemRef ItemOID="COL434"
  OrderNumber="7"
  Mandatory="Yes"
 MethodOID="METHDEF222"
  Role="Support"
 />
<!-- ItemRef in data set ADTTE for variable TTPCNSR -->
 <ItemRef ItemOID="COL433"
  OrderNumber="8"
  Mandatory="Yes"
 MethodOID="METHDEF213"
  Role="analysis"
 />
<!-- ItemRef in data set ADTTE for variable AESEQ -->
 <ItemRef ItemOID="COL413"
  OrderNumber="9"
  Mandatory="Yes"
  Role="support"
 />
<!-- ItemRef in data set ADTTE for variable AEDECOD -->
 <ItemRef ItemOID="COL412"
  OrderNumber="10"
  Mandatory="Yes"
  Role="Selection"
 />
<!-- ItemRef in data set ADTTE for variable AETERM -->
 <ItemRef ItemOID="COL414"
  OrderNumber="11"
  Mandatory="Yes"
  Role="Support"
 />
<!-- ItemRef in data set ADTTE for variable TRTP -->
 <ItemRef ItemOID="COL428"
  OrderNumber="12"
  Mandatory="Yes"
  Role="Analysis"
 />
<!-- ItemRef in data set ADTTE for variable TRTPCD -->
 <ItemRef ItemOID="COL429"
  OrderNumber="13"
  Mandatory="Yes"
  Role="Analysis"
 />
<!-- ItemRef in data set ADTTE for variable TRTPN -->
 <ItemRef ItemOID="COL430"
  OrderNumber="14"
  Mandatory="Yes"
  Role="Analysis"
 />
<!-- ItemRef in data set ADTTE for variable AGEGRP -->
 <ItemRef ItemOID="COL415"
  OrderNumber="15"
  Mandatory="Yes"
  Role="Covariate"
 />
<!-- ItemRef in data set ADTTE for variable RACE -->
 <ItemRef ItemOID="COL421"
  OrderNumber="16"
  Mandatory="Yes"
  Role="Covariate"
 />
<!-- ItemRef in data set ADTTE for variable RACEN -->
 <ItemRef ItemOID="COL422"
  OrderNumber="17"
  Mandatory="Yes"
  Role="Covariate"
 />
<!-- ItemRef in data set ADTTE for variable SEX -->
 <ItemRef ItemOID="COL424"
  OrderNumber="18"
  Mandatory="Yes"
  Role="Covariate Selection"
 />
<!-- ItemRef in data set ADTTE for variable SAFETY -->
 <ItemRef ItemOID="COL423"
  OrderNumber="19"
  Mandatory="Yes"
  Role="Selection"
 />
<!-- ItemRef in data set ADTTE for variable ITT -->
 <ItemRef ItemOID="COL419"
  OrderNumber="20"
  Mandatory="Yes"
  Role="Selection"
 />
<!-- ItemRef in data set ADTTE for variable EFFICACY -->
 <ItemRef ItemOID="COL418"
  OrderNumber="21"
  Mandatory="Yes"
  Role="Selection"
 />
<!-- ItemRef in data set ADTTE for variable COMPLT24 -->
 <ItemRef ItemOID="COL416"
  OrderNumber="22"
  Mandatory="Yes"
  Role="Selection"
 />
<!-- ItemRef in data set ADTTE for variable TRTSTDT -->
 <ItemRef ItemOID="COL431"
  OrderNumber="23"
  Mandatory="Yes"
  Role="Support"
 />
<!-- ItemRef in data set ADTTE for variable LSTDOSDT -->
 <ItemRef ItemOID="COL420"
  OrderNumber="24"
  Mandatory="Yes"
  Role="Support"
 />
 <crt:leaf ID="Location.TABLE9" xlink:href="../analysis/adtte.xpt">
 <crt:title>adtte.xpt</crt:title>
 </crt:leaf>
</ItemGroupDef>
<!-- ************************************************************** -->
<!-- Defining ItemGroupDef for data set ADVS                    -->
<!-- ************************************************************** -->
<ItemGroupDef OID="TABLE10" Name="ADVS"
 Repeating="Yes"
 IsReferenceData="No"
 SASDatasetName="ADVS"
 Purpose="Analysis"
 crt:Label="Vital signs Analysis"
 crt:Structure="
Analysis dataset standards are still evolving, and most of the datasets from the original submission have been revised to follow that evolution.  However, this dataset has not been revised, and it was decided that the dataset and associated metadata not be
 included in the published package."
 crt:DomainKeys="USUBJID"
 crt:Class="Analysis"
 crt:ArchiveLocationID="Location.TABLE10"
>
<!-- ItemRef in data set ADVS for variable USUBJID -->
 <ItemRef ItemOID="COL436"
  OrderNumber="1"
  Mandatory="Yes"
  KeySequence="1"
 MethodOID="METHDEF214"
  Role="Identifier"
 />
 <crt:leaf ID="Location.TABLE10" xlink:href="../analysis/advs.xpt">
 <crt:title>advs.xpt</crt:title>
 </crt:leaf>
</ItemGroupDef>
<!-- ************************************************************** -->
<!-- Defining ItemGroupDef for data set TE                    -->
<!-- ************************************************************** -->
<ItemGroupDef OID="TABLE29" Name="TE"
 Repeating="No"
 IsReferenceData="No"
 SASDatasetName="TE"
 Purpose="Tabulation"
 crt:Label="Trial Elements"
 crt:Structure="One record per element"
 crt:DomainKeys="STUDYID, ETCD"
 crt:Class="Trial Design"
 crt:ArchiveLocationID="Location.TABLE29"
>
<!-- ItemRef in data set TE for variable STUDYID -->
 <ItemRef ItemOID="COL688"
  OrderNumber="1"
  Mandatory="Yes"
  KeySequence="1"
  Role="Identifier"
 />
<!-- ItemRef in data set TE for variable ETCD -->
 <ItemRef ItemOID="COL687"
  OrderNumber="2"
  Mandatory="Yes"
  KeySequence="2"
  Role="Topic"
 />
<!-- ItemRef in data set TE for variable DOMAIN -->
 <ItemRef ItemOID="COL685"
  OrderNumber="3"
  Mandatory="Yes"
  Role="Identifier"
 />
<!-- ItemRef in data set TE for variable ELEMENT -->
 <ItemRef ItemOID="COL686"
  OrderNumber="4"
  Mandatory="Yes"
  Role="Synonym Qualifier"
 />
<!-- ItemRef in data set TE for variable TESTRL -->
 <ItemRef ItemOID="COL691"
  OrderNumber="5"
  Mandatory="Yes"
  Role="Rule"
 />
<!-- ItemRef in data set TE for variable TEENRL -->
 <ItemRef ItemOID="COL690"
  OrderNumber="6"
  Mandatory="Yes"
  Role="Rule"
 />
<!-- ItemRef in data set TE for variable TEDUR -->
 <ItemRef ItemOID="COL689"
  OrderNumber="7"
  Mandatory="Yes"
  Role="Timing"
 />
 <crt:leaf ID="Location.TABLE29" xlink:href="../tabulations/te.xpt">
 <crt:title>te.xpt</crt:title>
 </crt:leaf>
</ItemGroupDef>
<!-- ************************************************************** -->
<!-- Defining ItemGroupDef for data set TA                    -->
<!-- ************************************************************** -->
<ItemGroupDef OID="TABLE28" Name="TA"
 Repeating="No"
 IsReferenceData="No"
 SASDatasetName="TA"
 Purpose="Tabulation"
 crt:Label="Trial Arms"
 crt:Structure="One record per planned element per arm"
 crt:DomainKeys="STUDYID, ETCD"
 crt:Class="Trial Design"
 crt:ArchiveLocationID="Location.TABLE28"
>
<!-- ItemRef in data set TA for variable STUDYID -->
 <ItemRef ItemOID="COL681"
  OrderNumber="1"
  Mandatory="Yes"
  KeySequence="1"
  Role="Identifier"
 />
<!-- ItemRef in data set TA for variable ETCD -->
 <ItemRef ItemOID="COL680"
  OrderNumber="2"
  Mandatory="Yes"
  KeySequence="3"
  Role="Record Qualifier"
 />
<!-- ItemRef in data set TA for variable DOMAIN -->
 <ItemRef ItemOID="COL677"
  OrderNumber="3"
  Mandatory="Yes"
  Role="Identifier"
 />
<!-- ItemRef in data set TA for variable ARMCD -->
 <ItemRef ItemOID="COL676"
  OrderNumber="4"
  Mandatory="Yes"
  Role="Topic"
 />
<!-- ItemRef in data set TA for variable ARM -->
 <ItemRef ItemOID="COL675"
  OrderNumber="5"
  Mandatory="Yes"
  Role="Synonym Qualifier"
 />
<!-- ItemRef in data set TA for variable TAETORD -->
 <ItemRef ItemOID="COL683"
  OrderNumber="6"
  Mandatory="Yes"
  Role="Identifier"
 />
<!-- ItemRef in data set TA for variable ELEMENT -->
 <ItemRef ItemOID="COL678"
  OrderNumber="7"
  Mandatory="Yes"
  Role="Synonym Qualifier"
 />
<!-- ItemRef in data set TA for variable TABRANCH -->
 <ItemRef ItemOID="COL682"
  OrderNumber="8"
  Mandatory="Yes"
  Role="Rule"
 />
<!-- ItemRef in data set TA for variable TATRANS -->
 <ItemRef ItemOID="COL684"
  OrderNumber="9"
  Mandatory="Yes"
  Role="Rule"
 />
<!-- ItemRef in data set TA for variable EPOCH -->
 <ItemRef ItemOID="COL679"
  OrderNumber="10"
  Mandatory="Yes"
  Role="Timing"
 />
 <crt:leaf ID="Location.TABLE28" xlink:href="../tabulations/ta.xpt">
 <crt:title>ta.xpt</crt:title>
 </crt:leaf>
</ItemGroupDef>
<!-- ************************************************************** -->
<!-- Defining ItemGroupDef for data set TV                    -->
<!-- ************************************************************** -->
<ItemGroupDef OID="TABLE32" Name="TV"
 Repeating="Yes"
 IsReferenceData="No"
 SASDatasetName="TV"
 Purpose="Tabulation"
 crt:Label="Trial Visits"
 crt:Structure="One record per planned visit per arm"
 crt:DomainKeys="STUDYID, VISITNUM"
 crt:Class="Trial Design"
 crt:ArchiveLocationID="Location.TABLE32"
>
<!-- ItemRef in data set TV for variable STUDYID -->
 <ItemRef ItemOID="COL707"
  OrderNumber="1"
  Mandatory="Yes"
  KeySequence="1"
  Role="Identifier"
 />
<!-- ItemRef in data set TV for variable VISITNUM -->
 <ItemRef ItemOID="COL712"
  OrderNumber="2"
  Mandatory="Yes"
  KeySequence="2"
  Role="Topic"
 />
<!-- ItemRef in data set TV for variable TVENRL -->
 <ItemRef ItemOID="COL708"
  OrderNumber="3"
  Mandatory="Yes"
  Role="Rule"
 />
<!-- ItemRef in data set TV for variable DOMAIN -->
 <ItemRef ItemOID="COL706"
  OrderNumber="4"
  Mandatory="Yes"
  Role="Identifier"
 />
<!-- ItemRef in data set TV for variable VISIT -->
 <ItemRef ItemOID="COL710"
  OrderNumber="5"
  Mandatory="Yes"
  Role="Synonym 
Qualifier"
 />
<!-- ItemRef in data set TV for variable VISITDY -->
 <ItemRef ItemOID="COL711"
  OrderNumber="6"
  Mandatory="Yes"
  Role="Timing"
 />
<!-- ItemRef in data set TV for variable ARMCD -->
 <ItemRef ItemOID="COL705"
  OrderNumber="7"
  Mandatory="Yes"
  Role="Result Qualifier"
 />
<!-- ItemRef in data set TV for variable ARM -->
 <ItemRef ItemOID="COL704"
  OrderNumber="8"
  Mandatory="Yes"
  Role="Synonym Qualifier"
 />
<!-- ItemRef in data set TV for variable TVSTRL -->
 <ItemRef ItemOID="COL709"
  OrderNumber="9"
  Mandatory="Yes"
  Role="Rule"
 />
 <crt:leaf ID="Location.TABLE32" xlink:href="../tabulations/tv.xpt">
 <crt:title>tv.xpt</crt:title>
 </crt:leaf>
</ItemGroupDef>
<!-- ************************************************************** -->
<!-- Defining ItemGroupDef for data set TI                    -->
<!-- ************************************************************** -->
<ItemGroupDef OID="TABLE30" Name="TI"
 Repeating="No"
 IsReferenceData="No"
 SASDatasetName="TI"
 Purpose="Tabulation"
 crt:Label="Trial Inclusion/Exclusion Criteria"
 crt:Structure="One record per I/E criterion"
 crt:DomainKeys="STUDYID, IETESTCD"
 crt:Class="Trial Design"
 crt:ArchiveLocationID="Location.TABLE30"
>
<!-- ItemRef in data set TI for variable STUDYID -->
 <ItemRef ItemOID="COL696"
  OrderNumber="1"
  Mandatory="Yes"
  KeySequence="1"
  Role="Identifier"
 />
<!-- ItemRef in data set TI for variable IETESTCD -->
 <ItemRef ItemOID="COL695"
  OrderNumber="2"
  Mandatory="Yes"
  KeySequence="2"
  Role="Topic"
 />
<!-- ItemRef in data set TI for variable DOMAIN -->
 <ItemRef ItemOID="COL692"
  OrderNumber="3"
  Mandatory="Yes"
  Role="Identifier"
 />
<!-- ItemRef in data set TI for variable IETEST -->
 <ItemRef ItemOID="COL694"
  OrderNumber="4"
  Mandatory="Yes"
  Role="Synonym Qualifier"
 />
<!-- ItemRef in data set TI for variable IECAT -->
 <ItemRef ItemOID="COL693"
  OrderNumber="5"
  Mandatory="Yes"
  Role="Grouping Qualifier"
 />
<!-- ItemRef in data set TI for variable TIRL -->
 <ItemRef ItemOID="COL697"
  OrderNumber="6"
  Mandatory="Yes"
  Role="Rule"
 />
 <crt:leaf ID="Location.TABLE30" xlink:href="../tabulations/ti.xpt">
 <crt:title>ti.xpt</crt:title>
 </crt:leaf>
</ItemGroupDef>
<!-- ************************************************************** -->
<!-- Defining ItemGroupDef for data set TS                    -->
<!-- ************************************************************** -->
<ItemGroupDef OID="TABLE31" Name="TS"
 Repeating="No"
 IsReferenceData="No"
 SASDatasetName="TS"
 Purpose="Tabulation"
 crt:Label="Trial Summary"
 crt:Structure="One record per trial summary parameter"
 crt:DomainKeys="STUDYID, TSPARMCD, TSSEQ"
 crt:Class="Trial Design"
 crt:ArchiveLocationID="Location.TABLE31"
>
<!-- ItemRef in data set TS for variable STUDYID -->
 <ItemRef ItemOID="COL699"
  OrderNumber="1"
  Mandatory="Yes"
  KeySequence="1"
  Role="Identifier"
 />
<!-- ItemRef in data set TS for variable TSPARMCD -->
 <ItemRef ItemOID="COL701"
  OrderNumber="2"
  Mandatory="Yes"
  KeySequence="2"
  Role="Topic"
 />
<!-- ItemRef in data set TS for variable TSSEQ -->
 <ItemRef ItemOID="COL702"
  OrderNumber="3"
  Mandatory="Yes"
  KeySequence="3"
  Role="Identifier"
 />
<!-- ItemRef in data set TS for variable DOMAIN -->
 <ItemRef ItemOID="COL698"
  OrderNumber="4"
  Mandatory="Yes"
  Role="Identifier"
 />
<!-- ItemRef in data set TS for variable TSPARM -->
 <ItemRef ItemOID="COL700"
  OrderNumber="5"
  Mandatory="Yes"
  Role="Synonym Qualifier"
 />
<!-- ItemRef in data set TS for variable TSVAL -->
 <ItemRef ItemOID="COL703"
  OrderNumber="6"
  Mandatory="Yes"
  Role="Result Qualifier"
 />
 <crt:leaf ID="Location.TABLE31" xlink:href="../tabulations/ts.xpt">
 <crt:title>ts.xpt</crt:title>
 </crt:leaf>
</ItemGroupDef>
<!-- ************************************************************** -->
<!-- Defining ItemGroupDef for data set SE                    -->
<!-- ************************************************************** -->
<ItemGroupDef OID="TABLE21" Name="SE"
 Repeating="Yes"
 IsReferenceData="No"
 SASDatasetName="SE"
 Purpose="Tabulation"
 crt:Label="Subject Elements"
 crt:Structure="One record per actual element per subject"
 crt:DomainKeys="STUDYID, USUBJID, ETCD"
 crt:Class="Trial Design"
 crt:ArchiveLocationID="Location.TABLE21"
>
<!-- ItemRef in data set SE for variable STUDYID -->
 <ItemRef ItemOID="COL617"
  OrderNumber="1"
  Mandatory="Yes"
  KeySequence="1"
  Role="Identifier"
 />
<!-- ItemRef in data set SE for variable USUBJID -->
 <ItemRef ItemOID="COL618"
  OrderNumber="2"
  Mandatory="Yes"
  KeySequence="2"
  Role="Identifier"
 />
<!-- ItemRef in data set SE for variable ETCD -->
 <ItemRef ItemOID="COL612"
  OrderNumber="3"
  Mandatory="Yes"
  KeySequence="3"
  Role="Topic"
 />
<!-- ItemRef in data set SE for variable DOMAIN -->
 <ItemRef ItemOID="COL610"
  OrderNumber="4"
  Mandatory="Yes"
  Role="Identifier"
 />
<!-- ItemRef in data set SE for variable SESEQ -->
 <ItemRef ItemOID="COL614"
  OrderNumber="5"
  Mandatory="Yes"
  Role="Identifier"
 />
<!-- ItemRef in data set SE for variable ELEMENT -->
 <ItemRef ItemOID="COL611"
  OrderNumber="6"
  Mandatory="Yes"
  Role="Synonym Qualifier"
 />
<!-- ItemRef in data set SE for variable SESTDTC -->
 <ItemRef ItemOID="COL615"
  OrderNumber="7"
  Mandatory="Yes"
  Role="Timing"
 />
<!-- ItemRef in data set SE for variable SEENDTC -->
 <ItemRef ItemOID="COL613"
  OrderNumber="8"
  Mandatory="Yes"
  Role="Timing"
 />
<!-- ItemRef in data set SE for variable SEUPDES -->
 <ItemRef ItemOID="COL616"
  OrderNumber="9"
  Mandatory="Yes"
  Role="Synonym Qualifier"
 />
 <crt:leaf ID="Location.TABLE21" xlink:href="../tabulations/se.xpt">
 <crt:title>se.xpt</crt:title>
 </crt:leaf>
</ItemGroupDef>
<!-- ************************************************************** -->
<!-- Defining ItemGroupDef for data set SV                    -->
<!-- ************************************************************** -->
<ItemGroupDef OID="TABLE27" Name="SV"
 Repeating="Yes"
 IsReferenceData="No"
 SASDatasetName="SV"
 Purpose="Tabulation"
 crt:Label="Subject Visits"
 crt:Structure="One record per subject per actual visit"
 crt:DomainKeys="STUDYID, USUBJID, VISITNUM"
 crt:Class="Trial Design"
 crt:ArchiveLocationID="Location.TABLE27"
>
<!-- ItemRef in data set SV for variable STUDYID -->
 <ItemRef ItemOID="COL668"
  OrderNumber="1"
  Mandatory="Yes"
  KeySequence="1"
  Role="Identifier"
 />
<!-- ItemRef in data set SV for variable USUBJID -->
 <ItemRef ItemOID="COL671"
  OrderNumber="2"
  Mandatory="Yes"
  KeySequence="2"
  Role="Identifier"
 />
<!-- ItemRef in data set SV for variable VISITNUM -->
 <ItemRef ItemOID="COL674"
  OrderNumber="3"
  Mandatory="Yes"
  KeySequence="3"
  Role="Topic"
 />
<!-- ItemRef in data set SV for variable DOMAIN -->
 <ItemRef ItemOID="COL667"
  OrderNumber="4"
  Mandatory="Yes"
  Role="Identifier"
 />
<!-- ItemRef in data set SV for variable VISIT -->
 <ItemRef ItemOID="COL672"
  OrderNumber="5"
  Mandatory="Yes"
  Role="Synonym Qualifier"
 />
<!-- ItemRef in data set SV for variable VISITDY -->
 <ItemRef ItemOID="COL673"
  OrderNumber="6"
  Mandatory="Yes"
  Role="Timing"
 />
<!-- ItemRef in data set SV for variable SVSTDTC -->
 <ItemRef ItemOID="COL670"
  OrderNumber="7"
  Mandatory="Yes"
  Role="Timing"
 />
<!-- ItemRef in data set SV for variable SVENDTC -->
 <ItemRef ItemOID="COL669"
  OrderNumber="8"
  Mandatory="Yes"
  Role="Timing"
 />
 <crt:leaf ID="Location.TABLE27" xlink:href="../tabulations/sv.xpt">
 <crt:title>sv.xpt</crt:title>
 </crt:leaf>
</ItemGroupDef>
<!-- ************************************************************** -->
<!-- Defining ItemGroupDef for data set DM                    -->
<!-- ************************************************************** -->
<ItemGroupDef OID="TABLE13" Name="DM"
 Repeating="No"
 IsReferenceData="No"
 SASDatasetName="DM"
 Purpose="Tabulation"
 crt:Label="Demographics"
 crt:Structure="One record per subject"
 crt:DomainKeys="STUDYID, USUBJID"
 crt:Class="Special Purpose"
 crt:ArchiveLocationID="Location.TABLE13"
>
<!-- ItemRef in data set DM for variable STUDYID -->
 <ItemRef ItemOID="COL496"
  OrderNumber="1"
  Mandatory="Yes"
  KeySequence="1"
  Role="Identifier"
 />
<!-- ItemRef in data set DM for variable USUBJID -->
 <ItemRef ItemOID="COL498"
  OrderNumber="2"
  Mandatory="Yes"
  KeySequence="2"
  Role="Identifier"
 />
<!-- ItemRef in data set DM for variable DOMAIN -->
 <ItemRef ItemOID="COL490"
  OrderNumber="3"
  Mandatory="Yes"
  Role="Identifier"
 />
<!-- ItemRef in data set DM for variable SUBJID -->
 <ItemRef ItemOID="COL497"
  OrderNumber="4"
  Mandatory="Yes"
  Role="Topic"
 />
<!-- ItemRef in data set DM for variable RFSTDTC -->
 <ItemRef ItemOID="COL493"
  OrderNumber="5"
  Mandatory="Yes"
  Role="Timing"
 />
<!-- ItemRef in data set DM for variable RFENDTC -->
 <ItemRef ItemOID="COL492"
  OrderNumber="6"
  Mandatory="Yes"
  Role="Timing"
 />
<!-- ItemRef in data set DM for variable SITEID -->
 <ItemRef ItemOID="COL495"
  OrderNumber="7"
  Mandatory="Yes"
  Role="Record Qualifier"
 />
<!-- ItemRef in data set DM for variable AGE -->
 <ItemRef ItemOID="COL483"
  OrderNumber="8"
  Mandatory="Yes"
  Role="Result Qualifier"
 />
<!-- ItemRef in data set DM for variable AGEU -->
 <ItemRef ItemOID="COL484"
  OrderNumber="9"
  Mandatory="Yes"
  Role="Variable Qualifier"
 />
<!-- ItemRef in data set DM for variable SEX -->
 <ItemRef ItemOID="COL494"
  OrderNumber="10"
  Mandatory="Yes"
  Role="Result Qualifier"
 />
<!-- ItemRef in data set DM for variable RACE -->
 <ItemRef ItemOID="COL491"
  OrderNumber="11"
  Mandatory="Yes"
  Role="Result Qualifier"
 />
<!-- ItemRef in data set DM for variable ARMCD -->
 <ItemRef ItemOID="COL486"
  OrderNumber="12"
  Mandatory="Yes"
  Role="Result Qualifier"
 />
<!-- ItemRef in data set DM for variable ARM -->
 <ItemRef ItemOID="COL485"
  OrderNumber="13"
  Mandatory="Yes"
  Role="Synonym Qualifier"
 />
<!-- ItemRef in data set DM for variable COUNTRY -->
 <ItemRef ItemOID="COL487"
  OrderNumber="14"
  Mandatory="Yes"
  Role="Result Qualifier"
 />
<!-- ItemRef in data set DM for variable DMDTC -->
 <ItemRef ItemOID="COL488"
  OrderNumber="15"
  Mandatory="Yes"
  Role="Timing"
 />
<!-- ItemRef in data set DM for variable DMDY -->
 <ItemRef ItemOID="COL489"
  OrderNumber="16"
  Mandatory="Yes"
 MethodOID="METHDEF216"
  Role="Timing"
 />
 <crt:leaf ID="Location.TABLE13" xlink:href="../tabulations/dm.xpt">
 <crt:title>dm.xpt</crt:title>
 </crt:leaf>
</ItemGroupDef>
<!-- ************************************************************** -->
<!-- Defining ItemGroupDef for data set CM                    -->
<!-- ************************************************************** -->
<ItemGroupDef OID="TABLE12" Name="CM"
 Repeating="Yes"
 IsReferenceData="No"
 SASDatasetName="CM"
 Purpose="Tabulation"
 crt:Label="Concomitant Medications"
 crt:Structure="One record per medication intervention episode per subject"
 crt:DomainKeys="STUDYID, USUBJID, CMTRT, CMSTDTC"
 crt:Class="Interventions"
 crt:ArchiveLocationID="Location.TABLE12"
>
<!-- ItemRef in data set CM for variable STUDYID -->
 <ItemRef ItemOID="COL478"
  OrderNumber="1"
  Mandatory="Yes"
  KeySequence="1"
  Role="Identifier"
 />
<!-- ItemRef in data set CM for variable USUBJID -->
 <ItemRef ItemOID="COL479"
  OrderNumber="2"
  Mandatory="Yes"
  KeySequence="2"
  Role="Identifier"
 />
<!-- ItemRef in data set CM for variable CMTRT -->
 <ItemRef ItemOID="COL476"
  OrderNumber="3"
  Mandatory="Yes"
  KeySequence="3"
  Role="Topic"
 />
<!-- ItemRef in data set CM for variable CMSTDTC -->
 <ItemRef ItemOID="COL474"
  OrderNumber="4"
  Mandatory="Yes"
  KeySequence="4"
  Role="Timing"
 />
<!-- ItemRef in data set CM for variable DOMAIN -->
 <ItemRef ItemOID="COL477"
  OrderNumber="5"
  Mandatory="Yes"
  Role="Identifier"
 />
<!-- ItemRef in data set CM for variable CMSEQ -->
 <ItemRef ItemOID="COL472"
  OrderNumber="6"
  Mandatory="Yes"
  Role="Identifier"
 />
<!-- ItemRef in data set CM for variable CMSPID -->
 <ItemRef ItemOID="COL473"
  OrderNumber="7"
  Mandatory="Yes"
  Role="Identifier"
 />
<!-- ItemRef in data set CM for variable CMDECOD -->
 <ItemRef ItemOID="COL463"
  OrderNumber="8"
  Mandatory="Yes"
  Role="Synonym Qualifier"
 />
<!-- ItemRef in data set CM for variable CMINDC -->
 <ItemRef ItemOID="COL470"
  OrderNumber="9"
  Mandatory="Yes"
  Role="Record Qualifier"
 />
<!-- ItemRef in data set CM for variable CMCLAS -->
 <ItemRef ItemOID="COL462"
  OrderNumber="10"
  Mandatory="Yes"
  Role="Variable Qualifier"
 />
<!-- ItemRef in data set CM for variable CMDOSE -->
 <ItemRef ItemOID="COL464"
  OrderNumber="11"
  Mandatory="Yes"
  Role="Record Qualifier"
 />
<!-- ItemRef in data set CM for variable CMDOSU -->
 <ItemRef ItemOID="COL466"
  OrderNumber="12"
  Mandatory="Yes"
  Role="Variable Qualifier"
 />
<!-- ItemRef in data set CM for variable CMDOSFRQ -->
 <ItemRef ItemOID="COL465"
  OrderNumber="13"
  Mandatory="Yes"
  Role="Variable Qualifier"
 />
<!-- ItemRef in data set CM for variable CMROUTE -->
 <ItemRef ItemOID="COL471"
  OrderNumber="14"
  Mandatory="Yes"
  Role="Variable Qualifier"
 />
<!-- ItemRef in data set CM for variable CMENDTC -->
 <ItemRef ItemOID="COL468"
  OrderNumber="15"
  Mandatory="Yes"
  Role="Timing"
 />
<!-- ItemRef in data set CM for variable CMSTDY -->
 <ItemRef ItemOID="COL475"
  OrderNumber="16"
  Mandatory="Yes"
 MethodOID="METHDEF216"
  Role="Timing"
 />
<!-- ItemRef in data set CM for variable CMENDY -->
 <ItemRef ItemOID="COL469"
  OrderNumber="17"
  Mandatory="Yes"
 MethodOID="METHDEF216"
  Role="Timing"
 />
<!-- ItemRef in data set CM for variable CMDTC -->
 <ItemRef ItemOID="COL467"
  OrderNumber="18"
  Mandatory="Yes"
  Role="Timing"
 />
<!-- ItemRef in data set CM for variable VISIT -->
 <ItemRef ItemOID="COL480"
  OrderNumber="19"
  Mandatory="Yes"
  Role="Timing"
 />
<!-- ItemRef in data set CM for variable VISITNUM -->
 <ItemRef ItemOID="COL482"
  OrderNumber="20"
  Mandatory="Yes"
  Role="Timing"
 />
<!-- ItemRef in data set CM for variable VISITDY -->
 <ItemRef ItemOID="COL481"
  OrderNumber="21"
  Mandatory="Yes"
  Role="Timing"
 />
 <crt:leaf ID="Location.TABLE12" xlink:href="../tabulations/cm.xpt">
 <crt:title>cm.xpt</crt:title>
 </crt:leaf>
</ItemGroupDef>
<!-- ************************************************************** -->
<!-- Defining ItemGroupDef for data set EX                    -->
<!-- ************************************************************** -->
<ItemGroupDef OID="TABLE15" Name="EX"
 Repeating="Yes"
 IsReferenceData="No"
 SASDatasetName="EX"
 Purpose="Tabulation"
 crt:Label="Exposure"
 crt:Structure="One record per constant dosing interval per subject"
 crt:DomainKeys="STUDYID, USUBJID, EXTRT, EXSTDTC"
 crt:Class="Interventions"
 crt:ArchiveLocationID="Location.TABLE15"
>
<!-- ItemRef in data set EX for variable STUDYID -->
 <ItemRef ItemOID="COL525"
  OrderNumber="1"
  Mandatory="Yes"
  KeySequence="1"
  Role="Identifier"
 />
<!-- ItemRef in data set EX for variable USUBJID -->
 <ItemRef ItemOID="COL526"
  OrderNumber="2"
  Mandatory="Yes"
  KeySequence="2"
  Role="Identifier"
 />
<!-- ItemRef in data set EX for variable EXTRT -->
 <ItemRef ItemOID="COL524"
  OrderNumber="3"
  Mandatory="Yes"
  KeySequence="3"
  Role="Topic"
 />
<!-- ItemRef in data set EX for variable EXSTDTC -->
 <ItemRef ItemOID="COL522"
  OrderNumber="4"
  Mandatory="Yes"
  KeySequence="4"
  Role="Timing"
 />
<!-- ItemRef in data set EX for variable DOMAIN -->
 <ItemRef ItemOID="COL513"
  OrderNumber="5"
  Mandatory="Yes"
  Role="Identifier"
 />
<!-- ItemRef in data set EX for variable EXSEQ -->
 <ItemRef ItemOID="COL521"
  OrderNumber="6"
  Mandatory="Yes"
  Role="Identifier"
 />
<!-- ItemRef in data set EX for variable EXDOSE -->
 <ItemRef ItemOID="COL514"
  OrderNumber="7"
  Mandatory="Yes"
  Role="Record Qualifier"
 />
<!-- ItemRef in data set EX for variable EXDOSU -->
 <ItemRef ItemOID="COL517"
  OrderNumber="8"
  Mandatory="Yes"
  Role="Variable Qualifier"
 />
<!-- ItemRef in data set EX for variable EXDOSFRM -->
 <ItemRef ItemOID="COL515"
  OrderNumber="9"
  Mandatory="Yes"
  Role="Variable Qualifier"
 />
<!-- ItemRef in data set EX for variable EXDOSFRQ -->
 <ItemRef ItemOID="COL516"
  OrderNumber="10"
  Mandatory="Yes"
  Role="Variable Qualifier"
 />
<!-- ItemRef in data set EX for variable EXROUTE -->
 <ItemRef ItemOID="COL520"
  OrderNumber="11"
  Mandatory="Yes"
  Role="Variable Qualifier"
 />
<!-- ItemRef in data set EX for variable VISIT -->
 <ItemRef ItemOID="COL527"
  OrderNumber="12"
  Mandatory="Yes"
  Role="Timing"
 />
<!-- ItemRef in data set EX for variable VISITNUM -->
 <ItemRef ItemOID="COL529"
  OrderNumber="13"
  Mandatory="Yes"
  Role="Timing"
 />
<!-- ItemRef in data set EX for variable VISITDY -->
 <ItemRef ItemOID="COL528"
  OrderNumber="14"
  Mandatory="Yes"
  Role="Timing"
 />
<!-- ItemRef in data set EX for variable EXENDTC -->
 <ItemRef ItemOID="COL518"
  OrderNumber="15"
  Mandatory="Yes"
  Role="Timing"
 />
<!-- ItemRef in data set EX for variable EXSTDY -->
 <ItemRef ItemOID="COL523"
  OrderNumber="16"
  Mandatory="Yes"
 MethodOID="METHDEF216"
  Role="Timing"
 />
<!-- ItemRef in data set EX for variable EXENDY -->
 <ItemRef ItemOID="COL519"
  OrderNumber="17"
  Mandatory="Yes"
 MethodOID="METHDEF216"
  Role="Timing"
 />
 <crt:leaf ID="Location.TABLE15" xlink:href="../tabulations/ex.xpt">
 <crt:title>ex.xpt</crt:title>
 </crt:leaf>
</ItemGroupDef>
<!-- ************************************************************** -->
<!-- Defining ItemGroupDef for data set AE                    -->
<!-- ************************************************************** -->
<ItemGroupDef OID="TABLE11" Name="AE"
 Repeating="Yes"
 IsReferenceData="No"
 SASDatasetName="AE"
 Purpose="Tabulation"
 crt:Label="Adverse Events"
 crt:Structure="One record per adverse event per subject"
 crt:DomainKeys="STUDYID, USUBJID, AETERM, AESTDTC, AESEQ"
 crt:Class="Events"
 crt:ArchiveLocationID="Location.TABLE11"
>
<!-- ItemRef in data set AE for variable STUDYID -->
 <ItemRef ItemOID="COL460"
  OrderNumber="1"
  Mandatory="Yes"
  KeySequence="1"
  Role="Identifier"
 />
<!-- ItemRef in data set AE for variable USUBJID -->
 <ItemRef ItemOID="COL461"
  OrderNumber="2"
  Mandatory="Yes"
  KeySequence="2"
  Role="Identifier"
 />
<!-- ItemRef in data set AE for variable AETERM -->
 <ItemRef ItemOID="COL458"
  OrderNumber="3"
  Mandatory="Yes"
  KeySequence="3"
  Role="Topic"
 />
<!-- ItemRef in data set AE for variable AESTDTC -->
 <ItemRef ItemOID="COL456"
  OrderNumber="4"
  Mandatory="Yes"
  KeySequence="4"
  Role="Timing"
 />
<!-- ItemRef in data set AE for variable AESEQ -->
 <ItemRef ItemOID="COL449"
  OrderNumber="5"
  Mandatory="Yes"
  KeySequence="5"
  Role="Identifier"
 />
<!-- ItemRef in data set AE for variable DOMAIN -->
 <ItemRef ItemOID="COL459"
  OrderNumber="6"
  Mandatory="Yes"
  Role="Identifier"
 />
<!-- ItemRef in data set AE for variable AESPID -->
 <ItemRef ItemOID="COL455"
  OrderNumber="7"
  Mandatory="Yes"
  Role="Identifier"
 />
<!-- ItemRef in data set AE for variable AEDECOD -->
 <ItemRef ItemOID="COL439"
  OrderNumber="8"
  Mandatory="Yes"
  Role="Synonym Qualifier"
 />
<!-- ItemRef in data set AE for variable AEBODSYS -->
 <ItemRef ItemOID="COL438"
  OrderNumber="9"
  Mandatory="Yes"
  Role="Record Qualifier"
 />
<!-- ItemRef in data set AE for variable AESEV -->
 <ItemRef ItemOID="COL451"
  OrderNumber="10"
  Mandatory="Yes"
  Role="Record Qualifier"
 />
<!-- ItemRef in data set AE for variable AESER -->
 <ItemRef ItemOID="COL450"
  OrderNumber="11"
  Mandatory="Yes"
  Role="Record Qualifier"
 />
<!-- ItemRef in data set AE for variable AEREL -->
 <ItemRef ItemOID="COL444"
  OrderNumber="12"
  Mandatory="Yes"
  Role="Record Qualifier"
 />
<!-- ItemRef in data set AE for variable AEOUT -->
 <ItemRef ItemOID="COL443"
  OrderNumber="13"
  Mandatory="Yes"
  Role="Record Qualifier"
 />
<!-- ItemRef in data set AE for variable AESCAN -->
 <ItemRef ItemOID="COL445"
  OrderNumber="14"
  Mandatory="Yes"
  Role="Record Qualifier"
 />
<!-- ItemRef in data set AE for variable AESCONG -->
 <ItemRef ItemOID="COL446"
  OrderNumber="15"
  Mandatory="Yes"
  Role="Record Qualifier"
 />
<!-- ItemRef in data set AE for variable AESDISAB -->
 <ItemRef ItemOID="COL447"
  OrderNumber="16"
  Mandatory="Yes"
  Role="Record Qualifier"
 />
<!-- ItemRef in data set AE for variable AESDTH -->
 <ItemRef ItemOID="COL448"
  OrderNumber="17"
  Mandatory="Yes"
  Role="Record Qualifier"
 />
<!-- ItemRef in data set AE for variable AESHOSP -->
 <ItemRef ItemOID="COL452"
  OrderNumber="18"
  Mandatory="Yes"
  Role="Record Qualifier"
 />
<!-- ItemRef in data set AE for variable AESLIFE -->
 <ItemRef ItemOID="COL453"
  OrderNumber="19"
  Mandatory="Yes"
  Role="Record Qualifier"
 />
<!-- ItemRef in data set AE for variable AESOD -->
 <ItemRef ItemOID="COL454"
  OrderNumber="20"
  Mandatory="Yes"
  Role="Record Qualifier"
 />
<!-- ItemRef in data set AE for variable AEENDTC -->
 <ItemRef ItemOID="COL441"
  OrderNumber="21"
  Mandatory="Yes"
  Role="Timing"
 />
<!-- ItemRef in data set AE for variable AESTDY -->
 <ItemRef ItemOID="COL457"
  OrderNumber="22"
  Mandatory="Yes"
 MethodOID="METHDEF216"
  Role="Timing"
 />
<!-- ItemRef in data set AE for variable AEENDY -->
 <ItemRef ItemOID="COL442"
  OrderNumber="23"
  Mandatory="Yes"
 MethodOID="METHDEF216"
  Role="Timing"
 />
<!-- ItemRef in data set AE for variable AEDTC -->
 <ItemRef ItemOID="COL440"
  OrderNumber="24"
  Mandatory="Yes"
  Role="Timing"
 />
<!-- ItemRef in data set AE for variable AEACN -->
 <ItemRef ItemOID="COL437"
  OrderNumber="25"
  Mandatory="Yes"
  Role="Record Qualifier"
 />
 <crt:leaf ID="Location.TABLE11" xlink:href="../tabulations/ae.xpt">
 <crt:title>ae.xpt</crt:title>
 </crt:leaf>
</ItemGroupDef>
<!-- ************************************************************** -->
<!-- Defining ItemGroupDef for data set DS                    -->
<!-- ************************************************************** -->
<ItemGroupDef OID="TABLE14" Name="DS"
 Repeating="Yes"
 IsReferenceData="No"
 SASDatasetName="DS"
 Purpose="Tabulation"
 crt:Label="Disposition"
 crt:Structure="One record per disposition status or protocol milestone per subject"
 crt:DomainKeys="STUDYID, USUBJID, DSSTDTC"
 crt:Class="Events"
 crt:ArchiveLocationID="Location.TABLE14"
>
<!-- ItemRef in data set DS for variable STUDYID -->
 <ItemRef ItemOID="COL508"
  OrderNumber="1"
  Mandatory="Yes"
  KeySequence="1"
  Role="Identifier"
 />
<!-- ItemRef in data set DS for variable USUBJID -->
 <ItemRef ItemOID="COL509"
  OrderNumber="2"
  Mandatory="Yes"
  KeySequence="2"
  Role="Identifier"
 />
<!-- ItemRef in data set DS for variable DSSTDTC -->
 <ItemRef ItemOID="COL505"
  OrderNumber="3"
  Mandatory="Yes"
  KeySequence="3"
  Role="Timing"
 />
<!-- ItemRef in data set DS for variable DOMAIN -->
 <ItemRef ItemOID="COL499"
  OrderNumber="4"
  Mandatory="Yes"
  Role="Identifier"
 />
<!-- ItemRef in data set DS for variable DSSEQ -->
 <ItemRef ItemOID="COL503"
  OrderNumber="5"
  Mandatory="Yes"
  Role="Identifier"
 />
<!-- ItemRef in data set DS for variable DSSPID -->
 <ItemRef ItemOID="COL504"
  OrderNumber="6"
  Mandatory="Yes"
  Role="Identifier"
 />
<!-- ItemRef in data set DS for variable DSTERM -->
 <ItemRef ItemOID="COL507"
  OrderNumber="7"
  Mandatory="Yes"
  Role="Topic"
 />
<!-- ItemRef in data set DS for variable DSDECOD -->
 <ItemRef ItemOID="COL501"
  OrderNumber="8"
  Mandatory="Yes"
  Role="Synonym Qualifier"
 />
<!-- ItemRef in data set DS for variable DSCAT -->
 <ItemRef ItemOID="COL500"
  OrderNumber="9"
  Mandatory="Yes"
  Role="Grouping Qualifier"
 />
<!-- ItemRef in data set DS for variable VISIT -->
 <ItemRef ItemOID="COL510"
  OrderNumber="10"
  Mandatory="Yes"
  Role="Timing"
 />
<!-- ItemRef in data set DS for variable VISITNUM -->
 <ItemRef ItemOID="COL512"
  OrderNumber="11"
  Mandatory="Yes"
  Role="Timing"
 />
<!-- ItemRef in data set DS for variable VISITDY -->
 <ItemRef ItemOID="COL511"
  OrderNumber="12"
  Mandatory="Yes"
  Role="Timing"
 />
<!-- ItemRef in data set DS for variable DSDTC -->
 <ItemRef ItemOID="COL502"
  OrderNumber="13"
  Mandatory="Yes"
  Role="Timing"
 />
<!-- ItemRef in data set DS for variable DSSTDY -->
 <ItemRef ItemOID="COL506"
  OrderNumber="14"
  Mandatory="Yes"
 MethodOID="METHDEF216"
  Role="Timing"
 />
 <crt:leaf ID="Location.TABLE14" xlink:href="../tabulations/ds.xpt">
 <crt:title>ds.xpt</crt:title>
 </crt:leaf>
</ItemGroupDef>
<!-- ************************************************************** -->
<!-- Defining ItemGroupDef for data set MH                    -->
<!-- ************************************************************** -->
<ItemGroupDef OID="TABLE17" Name="MH"
 Repeating="Yes"
 IsReferenceData="No"
 SASDatasetName="MH"
 Purpose="Tabulation"
 crt:Label="Medical History"
 crt:Structure="One record per medical record event per subject"
 crt:DomainKeys="STUDYID, USUBJID, MHTERM, MHSTDTC"
 crt:Class="Events"
 crt:ArchiveLocationID="Location.TABLE17"
>
<!-- ItemRef in data set MH for variable STUDYID -->
 <ItemRef ItemOID="COL564"
  OrderNumber="1"
  Mandatory="Yes"
  KeySequence="1"
  Role="Identifier"
 />
<!-- ItemRef in data set MH for variable USUBJID -->
 <ItemRef ItemOID="COL565"
  OrderNumber="2"
  Mandatory="Yes"
  KeySequence="2"
  Role="Identifier"
 />
<!-- ItemRef in data set MH for variable MHTERM -->
 <ItemRef ItemOID="COL563"
  OrderNumber="3"
  Mandatory="Yes"
  KeySequence="3"
  Role="Topic"
 />
<!-- ItemRef in data set MH for variable MHSTDTC -->
 <ItemRef ItemOID="COL562"
  OrderNumber="4"
  Mandatory="Yes"
  KeySequence="4"
  Role="Timing"
 />
<!-- ItemRef in data set MH for variable DOMAIN -->
 <ItemRef ItemOID="COL553"
  OrderNumber="5"
  Mandatory="Yes"
  Role="Identifier"
 />
<!-- ItemRef in data set MH for variable MHSEQ -->
 <ItemRef ItemOID="COL559"
  OrderNumber="6"
  Mandatory="Yes"
  Role="Identifier"
 />
<!-- ItemRef in data set MH for variable MHSPID -->
 <ItemRef ItemOID="COL561"
  OrderNumber="7"
  Mandatory="Yes"
  Role="Identifier"
 />
<!-- ItemRef in data set MH for variable MHDECOD -->
 <ItemRef ItemOID="COL556"
  OrderNumber="8"
  Mandatory="Yes"
  Role="Synonym Qualifier"
 />
<!-- ItemRef in data set MH for variable MHBODSYS -->
 <ItemRef ItemOID="COL554"
  OrderNumber="9"
  Mandatory="Yes"
  Role="Record Qualifier"
 />
<!-- ItemRef in data set MH for variable VISIT -->
 <ItemRef ItemOID="COL566"
  OrderNumber="10"
  Mandatory="Yes"
  Role="Timing"
 />
<!-- ItemRef in data set MH for variable VISITNUM -->
 <ItemRef ItemOID="COL568"
  OrderNumber="11"
  Mandatory="Yes"
  Role="Timing"
 />
<!-- ItemRef in data set MH for variable VISITDY -->
 <ItemRef ItemOID="COL567"
  OrderNumber="12"
  Mandatory="Yes"
  Role="Timing"
 />
<!-- ItemRef in data set MH for variable MHDTC -->
 <ItemRef ItemOID="COL557"
  OrderNumber="13"
  Mandatory="Yes"
  Role="Timing"
 />
<!-- ItemRef in data set MH for variable MHDY -->
 <ItemRef ItemOID="COL558"
  OrderNumber="14"
  Mandatory="Yes"
 MethodOID="METHDEF216"
  Role="Timing"
 />
<!-- ItemRef in data set MH for variable MHSEV -->
 <ItemRef ItemOID="COL560"
  OrderNumber="15"
  Mandatory="Yes"
  Role="Record Qualifier"
 />
<!-- ItemRef in data set MH for variable MHCAT -->
 <ItemRef ItemOID="COL555"
  OrderNumber="16"
  Mandatory="Yes"
  Role="Grouping Qualifier"
 />
 <crt:leaf ID="Location.TABLE17" xlink:href="../tabulations/mh.xpt">
 <crt:title>mh.xpt</crt:title>
 </crt:leaf>
</ItemGroupDef>
<!-- ************************************************************** -->
<!-- Defining ItemGroupDef for data set LB                    -->
<!-- ************************************************************** -->
<ItemGroupDef OID="TABLE16" Name="LB"
 Repeating="Yes"
 IsReferenceData="No"
 SASDatasetName="LB"
 Purpose="Tabulation"
 crt:Label="Laboratory Tests"
 crt:Structure="One record per lab test per time point per visit per subject"
 crt:DomainKeys="STUDYID, USUBJID, LBTESTCD, VISITNUM"
 crt:Class="Findings"
 crt:ArchiveLocationID="Location.TABLE16"
>
<!-- ItemRef in data set LB for variable STUDYID -->
 <ItemRef ItemOID="COL548"
  OrderNumber="1"
  Mandatory="Yes"
  KeySequence="1"
  Role="Identifier"
 />
<!-- ItemRef in data set LB for variable USUBJID -->
 <ItemRef ItemOID="COL549"
  OrderNumber="2"
  Mandatory="Yes"
  KeySequence="2"
  Role="Identifier"
 />
<!-- ItemRef in data set LB for variable LBTESTCD -->
 <ItemRef ItemOID="COL547"
  OrderNumber="3"
  Mandatory="Yes"
  KeySequence="3"
  Role="Topic"
 />
<!-- ItemRef in data set LB for variable VISITNUM -->
 <ItemRef ItemOID="COL552"
  OrderNumber="4"
  Mandatory="Yes"
  KeySequence="4"
  Role="Timing"
 />
<!-- ItemRef in data set LB for variable DOMAIN -->
 <ItemRef ItemOID="COL530"
  OrderNumber="5"
  Mandatory="Yes"
  Role="Identifier"
 />
<!-- ItemRef in data set LB for variable LBSEQ -->
 <ItemRef ItemOID="COL540"
  OrderNumber="6"
  Mandatory="Yes"
  Role="Identifier"
 />
<!-- ItemRef in data set LB for variable LBTEST -->
 <ItemRef ItemOID="COL546"
  OrderNumber="7"
  Mandatory="Yes"
  Role="Synonym Qualifier"
 />
<!-- ItemRef in data set LB for variable LBCAT -->
 <ItemRef ItemOID="COL532"
  OrderNumber="8"
  Mandatory="Yes"
  Role="Grouping Qualifier"
 />
<!-- ItemRef in data set LB for variable LBORRES -->
 <ItemRef ItemOID="COL538"
  OrderNumber="9"
  Mandatory="Yes"
  Role="Result Qualifier"
 />
<!-- ItemRef in data set LB for variable LBORRESU -->
 <ItemRef ItemOID="COL539"
  OrderNumber="10"
  Mandatory="Yes"
  Role="Variable Qualifier"
 />
<!-- ItemRef in data set LB for variable LBORNRLO -->
 <ItemRef ItemOID="COL537"
  OrderNumber="11"
  Mandatory="Yes"
  Role="Variable Qualifier"
 />
<!-- ItemRef in data set LB for variable LBORNRHI -->
 <ItemRef ItemOID="COL536"
  OrderNumber="12"
  Mandatory="Yes"
  Role="Variable Qualifier"
 />
<!-- ItemRef in data set LB for variable LBSTRESC -->
 <ItemRef ItemOID="COL543"
  OrderNumber="13"
  Mandatory="Yes"
  Role="Result Qualifier"
 />
<!-- ItemRef in data set LB for variable LBSTRESN -->
 <ItemRef ItemOID="COL544"
  OrderNumber="14"
  Mandatory="Yes"
  Role="Result Qualifier"
 />
<!-- ItemRef in data set LB for variable LBSTRESU -->
 <ItemRef ItemOID="COL545"
  OrderNumber="15"
  Mandatory="Yes"
  Role="Variable Qualifier"
 />
<!-- ItemRef in data set LB for variable LBSTNRLO -->
 <ItemRef ItemOID="COL542"
  OrderNumber="16"
  Mandatory="Yes"
  Role="Variable Qualifier"
 />
<!-- ItemRef in data set LB for variable LBSTNRHI -->
 <ItemRef ItemOID="COL541"
  OrderNumber="17"
  Mandatory="Yes"
  Role="Variable Qualifier"
 />
<!-- ItemRef in data set LB for variable LBNRIND -->
 <ItemRef ItemOID="COL535"
  OrderNumber="18"
  Mandatory="Yes"
  Role="Variable Qualifier"
 />
<!-- ItemRef in data set LB for variable LBBLFL -->
 <ItemRef ItemOID="COL531"
  OrderNumber="19"
  Mandatory="Yes"
  Role="Record Qualifier"
 />
<!-- ItemRef in data set LB for variable VISIT -->
 <ItemRef ItemOID="COL550"
  OrderNumber="20"
  Mandatory="Yes"
  Role="Timing"
 />
<!-- ItemRef in data set LB for variable VISITDY -->
 <ItemRef ItemOID="COL551"
  OrderNumber="21"
  Mandatory="Yes"
  Role="Timing"
 />
<!-- ItemRef in data set LB for variable LBDTC -->
 <ItemRef ItemOID="COL533"
  OrderNumber="22"
  Mandatory="Yes"
  Role="Timing"
 />
<!-- ItemRef in data set LB for variable LBDY -->
 <ItemRef ItemOID="COL534"
  OrderNumber="23"
  Mandatory="Yes"
 MethodOID="METHDEF216"
  Role="Timing"
 />
 <crt:leaf ID="Location.TABLE16" xlink:href="../tabulations/lb.xpt">
 <crt:title>lb.xpt</crt:title>
 </crt:leaf>
</ItemGroupDef>
<!-- ************************************************************** -->
<!-- Defining ItemGroupDef for data set QS                    -->
<!-- ************************************************************** -->
<ItemGroupDef OID="TABLE18" Name="QS"
 Repeating="Yes"
 IsReferenceData="No"
 SASDatasetName="QS"
 Purpose="Tabulation"
 crt:Label="Questionnaires"
 crt:Structure="One record per question per time point per visit per subject"
 crt:DomainKeys="STUDYID, USUBJID, QSTESTCD, VISITNUM"
 crt:Class="Findings"
 crt:ArchiveLocationID="Location.TABLE18"
>
<!-- ItemRef in data set QS for variable STUDYID -->
 <ItemRef ItemOID="COL584"
  OrderNumber="1"
  Mandatory="Yes"
  KeySequence="1"
  Role="Identifier"
 />
<!-- ItemRef in data set QS for variable USUBJID -->
 <ItemRef ItemOID="COL585"
  OrderNumber="2"
  Mandatory="Yes"
  KeySequence="2"
  Role="Identifier"
 />
<!-- ItemRef in data set QS for variable QSTESTCD -->
 <ItemRef ItemOID="COL583"
  OrderNumber="3"
  Mandatory="Yes"
  KeySequence="3"
  Role="Topic"
 />
<!-- ItemRef in data set QS for variable VISITNUM -->
 <ItemRef ItemOID="COL588"
  OrderNumber="4"
  Mandatory="Yes"
  KeySequence="4"
  Role="Timing"
 />
<!-- ItemRef in data set QS for variable DOMAIN -->
 <ItemRef ItemOID="COL569"
  OrderNumber="5"
  Mandatory="Yes"
  Role="Identifier"
 />
<!-- ItemRef in data set QS for variable QSSEQ -->
 <ItemRef ItemOID="COL578"
  OrderNumber="6"
  Mandatory="Yes"
  Role="Identifier"
 />
<!-- ItemRef in data set QS for variable QSTEST -->
 <ItemRef ItemOID="COL582"
  OrderNumber="7"
  Mandatory="Yes"
  Role="Synonym Qualifier"
 />
<!-- ItemRef in data set QS for variable QSCAT -->
 <ItemRef ItemOID="COL571"
  OrderNumber="8"
  Mandatory="Yes"
  Role="Grouping Qualifier"
 />
<!-- ItemRef in data set QS for variable QSSCAT -->
 <ItemRef ItemOID="COL577"
  OrderNumber="9"
  Mandatory="Yes"
  Role="Grouping Qualifier"
 />
<!-- ItemRef in data set QS for variable QSORRES -->
 <ItemRef ItemOID="COL575"
  OrderNumber="10"
  Mandatory="Yes"
  Role="Result Qualifier"
 />
<!-- ItemRef in data set QS for variable QSORRESU -->
 <ItemRef ItemOID="COL576"
  OrderNumber="11"
  Mandatory="Yes"
  Role="Variable Qualifier"
 />
<!-- ItemRef in data set QS for variable QSSTRESC -->
 <ItemRef ItemOID="COL579"
  OrderNumber="12"
  Mandatory="Yes"
  Role="Result Qualifier"
 />
<!-- ItemRef in data set QS for variable QSSTRESN -->
 <ItemRef ItemOID="COL580"
  OrderNumber="13"
  Mandatory="Yes"
 MethodOID="METHDEF215"
  Role="Result Qualifier"
 />
<!-- ItemRef in data set QS for variable QSSTRESU -->
 <ItemRef ItemOID="COL581"
  OrderNumber="14"
  Mandatory="Yes"
  Role="Variable Qualifier"
 />
<!-- ItemRef in data set QS for variable QSBLFL -->
 <ItemRef ItemOID="COL570"
  OrderNumber="15"
  Mandatory="Yes"
  Role="Record Qualifier"
 />
<!-- ItemRef in data set QS for variable QSDRVFL -->
 <ItemRef ItemOID="COL572"
  OrderNumber="16"
  Mandatory="Yes"
  Role="Record Qualifier"
 />
<!-- ItemRef in data set QS for variable VISIT -->
 <ItemRef ItemOID="COL586"
  OrderNumber="17"
  Mandatory="Yes"
  Role="Timing"
 />
<!-- ItemRef in data set QS for variable VISITDY -->
 <ItemRef ItemOID="COL587"
  OrderNumber="18"
  Mandatory="Yes"
  Role="Timing"
 />
<!-- ItemRef in data set QS for variable QSDTC -->
 <ItemRef ItemOID="COL573"
  OrderNumber="19"
  Mandatory="Yes"
  Role="Timing"
 />
<!-- ItemRef in data set QS for variable QSDY -->
 <ItemRef ItemOID="COL574"
  OrderNumber="20"
  Mandatory="Yes"
 MethodOID="METHDEF216"
  Role="Timing"
 />
 <crt:leaf ID="Location.TABLE18" xlink:href="../tabulations/qs.xpt">
 <crt:title>qs.xpt</crt:title>
 </crt:leaf>
</ItemGroupDef>
<!-- ************************************************************** -->
<!-- Defining ItemGroupDef for data set SC                    -->
<!-- ************************************************************** -->
<ItemGroupDef OID="TABLE20" Name="SC"
 Repeating="Yes"
 IsReferenceData="No"
 SASDatasetName="SC"
 Purpose="Tabulation"
 crt:Label="Subject Characteristics"
 crt:Structure="One record per characteristic per subject"
 crt:DomainKeys="STUDYID, USUBJID, SCTESTCD"
 crt:Class="Findings"
 crt:ArchiveLocationID="Location.TABLE20"
>
<!-- ItemRef in data set SC for variable STUDYID -->
 <ItemRef ItemOID="COL608"
  OrderNumber="1"
  Mandatory="Yes"
  KeySequence="1"
  Role="Identifier"
 />
<!-- ItemRef in data set SC for variable USUBJID -->
 <ItemRef ItemOID="COL609"
  OrderNumber="2"
  Mandatory="Yes"
  KeySequence="2"
  Role="Identifier"
 />
<!-- ItemRef in data set SC for variable SCTESTCD -->
 <ItemRef ItemOID="COL607"
  OrderNumber="3"
  Mandatory="Yes"
  KeySequence="3"
  Role="Topic"
 />
<!-- ItemRef in data set SC for variable DOMAIN -->
 <ItemRef ItemOID="COL596"
  OrderNumber="4"
  Mandatory="Yes"
  Role="Identifier"
 />
<!-- ItemRef in data set SC for variable SCSEQ -->
 <ItemRef ItemOID="COL602"
  OrderNumber="5"
  Mandatory="Yes"
  Role="Identifier"
 />
<!-- ItemRef in data set SC for variable SCTEST -->
 <ItemRef ItemOID="COL606"
  OrderNumber="6"
  Mandatory="Yes"
  Role="Synonym Qualifier"
 />
<!-- ItemRef in data set SC for variable SCCAT -->
 <ItemRef ItemOID="COL597"
  OrderNumber="7"
  Mandatory="Yes"
  Role="Grouping Qualifier"
 />
<!-- ItemRef in data set SC for variable SCORRES -->
 <ItemRef ItemOID="COL600"
  OrderNumber="8"
  Mandatory="Yes"
  Role="Result Qualifier"
 />
<!-- ItemRef in data set SC for variable SCORRESU -->
 <ItemRef ItemOID="COL601"
  OrderNumber="9"
  Mandatory="Yes"
  Role="Variable Qualifier"
 />
<!-- ItemRef in data set SC for variable SCSTRESC -->
 <ItemRef ItemOID="COL603"
  OrderNumber="10"
  Mandatory="Yes"
  Role="Result Qualifier"
 />
<!-- ItemRef in data set SC for variable SCSTRESN -->
 <ItemRef ItemOID="COL604"
  OrderNumber="11"
  Mandatory="Yes"
  Role="Result Qualifier"
 />
<!-- ItemRef in data set SC for variable SCSTRESU -->
 <ItemRef ItemOID="COL605"
  OrderNumber="12"
  Mandatory="Yes"
  Role="Variable Qualifier"
 />
<!-- ItemRef in data set SC for variable SCDTC -->
 <ItemRef ItemOID="COL598"
  OrderNumber="13"
  Mandatory="Yes"
  Role="Timing"
 />
<!-- ItemRef in data set SC for variable SCDY -->
 <ItemRef ItemOID="COL599"
  OrderNumber="14"
  Mandatory="Yes"
 MethodOID="METHDEF216"
  Role="Timing"
 />
 <crt:leaf ID="Location.TABLE20" xlink:href="../tabulations/sc.xpt">
 <crt:title>sc.xpt</crt:title>
 </crt:leaf>
</ItemGroupDef>
<!-- ************************************************************** -->
<!-- Defining ItemGroupDef for data set VS                    -->
<!-- ************************************************************** -->
<ItemGroupDef OID="TABLE33" Name="VS"
 Repeating="Yes"
 IsReferenceData="No"
 SASDatasetName="VS"
 Purpose="Tabulation"
 crt:Label="Vital Signs"
 crt:Structure="One record per vital sign measurement per time point per visit per subject"
 crt:DomainKeys="STUDYID, USUBJID, VSTESTCD, VISITNUM, VSTPTNUM"
 crt:Class="Findings"
 crt:ArchiveLocationID="Location.TABLE33"
>
<!-- ItemRef in data set VS for variable STUDYID -->
 <ItemRef ItemOID="COL714"
  OrderNumber="1"
  Mandatory="Yes"
  KeySequence="1"
  Role="Identifier"
 />
<!-- ItemRef in data set VS for variable USUBJID -->
 <ItemRef ItemOID="COL715"
  OrderNumber="2"
  Mandatory="Yes"
  KeySequence="2"
  Role="Identifier"
 />
<!-- ItemRef in data set VS for variable VSTESTCD -->
 <ItemRef ItemOID="COL733"
  OrderNumber="3"
  Mandatory="Yes"
  KeySequence="3"
  Role="Topic"
 />
<!-- ItemRef in data set VS for variable VISITNUM -->
 <ItemRef ItemOID="COL718"
  OrderNumber="4"
  Mandatory="Yes"
  KeySequence="4"
  Role="Timing"
 />
<!-- ItemRef in data set VS for variable VSTPTNUM -->
 <ItemRef ItemOID="COL735"
  OrderNumber="5"
  Mandatory="Yes"
  KeySequence="5"
  Role="Timing"
 />
<!-- ItemRef in data set VS for variable DOMAIN -->
 <ItemRef ItemOID="COL713"
  OrderNumber="6"
  Mandatory="Yes"
  Role="Identifier"
 />
<!-- ItemRef in data set VS for variable VSSEQ -->
 <ItemRef ItemOID="COL727"
  OrderNumber="7"
  Mandatory="Yes"
  Role="Identifier"
 />
<!-- ItemRef in data set VS for variable VSTEST -->
 <ItemRef ItemOID="COL732"
  OrderNumber="8"
  Mandatory="Yes"
  Role="Synonym Qualifier"
 />
<!-- ItemRef in data set VS for variable VSPOS -->
 <ItemRef ItemOID="COL726"
  OrderNumber="9"
  Mandatory="Yes"
  Role="Record Qualifier"
 />
<!-- ItemRef in data set VS for variable VSORRES -->
 <ItemRef ItemOID="COL724"
  OrderNumber="10"
  Mandatory="Yes"
  Role="Result Qualifier"
 />
<!-- ItemRef in data set VS for variable VSORRESU -->
 <ItemRef ItemOID="COL725"
  OrderNumber="11"
  Mandatory="Yes"
  Role="Variable Qualifier"
 />
<!-- ItemRef in data set VS for variable VSSTRESC -->
 <ItemRef ItemOID="COL729"
  OrderNumber="12"
  Mandatory="Yes"
  Role="Result Qualifier"
 />
<!-- ItemRef in data set VS for variable VSSTRESN -->
 <ItemRef ItemOID="COL730"
  OrderNumber="13"
  Mandatory="Yes"
  Role="Result Qualifier"
 />
<!-- ItemRef in data set VS for variable VSSTRESU -->
 <ItemRef ItemOID="COL731"
  OrderNumber="14"
  Mandatory="Yes"
  Role="Variable Qualifier"
 />
<!-- ItemRef in data set VS for variable VSSTAT -->
 <ItemRef ItemOID="COL728"
  OrderNumber="15"
  Mandatory="Yes"
  Role="Record Qualifier"
 />
<!-- ItemRef in data set VS for variable VSLOC -->
 <ItemRef ItemOID="COL723"
  OrderNumber="16"
  Mandatory="Yes"
  Role="Record Qualifier"
 />
<!-- ItemRef in data set VS for variable VSBLFL -->
 <ItemRef ItemOID="COL719"
  OrderNumber="17"
  Mandatory="Yes"
  Role="Record Qualifier"
 />
<!-- ItemRef in data set VS for variable VISIT -->
 <ItemRef ItemOID="COL716"
  OrderNumber="18"
  Mandatory="Yes"
  Role="Timing"
 />
<!-- ItemRef in data set VS for variable VISITDY -->
 <ItemRef ItemOID="COL717"
  OrderNumber="19"
  Mandatory="Yes"
  Role="Timing"
 />
<!-- ItemRef in data set VS for variable VSDTC -->
 <ItemRef ItemOID="COL720"
  OrderNumber="20"
  Mandatory="Yes"
  Role="Timing"
 />
<!-- ItemRef in data set VS for variable VSDY -->
 <ItemRef ItemOID="COL721"
  OrderNumber="21"
  Mandatory="Yes"
 MethodOID="METHDEF216"
  Role="Timing"
 />
<!-- ItemRef in data set VS for variable VSTPT -->
 <ItemRef ItemOID="COL734"
  OrderNumber="22"
  Mandatory="Yes"
  Role="Timing"
 />
<!-- ItemRef in data set VS for variable VSELTM -->
 <ItemRef ItemOID="COL722"
  OrderNumber="23"
  Mandatory="Yes"
  Role="Timing"
 />
<!-- ItemRef in data set VS for variable VSTPTREF -->
 <ItemRef ItemOID="COL736"
  OrderNumber="24"
  Mandatory="Yes"
  Role="Timing"
 />
 <crt:leaf ID="Location.TABLE33" xlink:href="../tabulations/vs.xpt">
 <crt:title>vs.xpt</crt:title>
 </crt:leaf>
</ItemGroupDef>
<!-- ************************************************************** -->
<!-- Defining ItemGroupDef for data set RELREC                    -->
<!-- ************************************************************** -->
<ItemGroupDef OID="TABLE19" Name="RELREC"
 Repeating="Yes"
 IsReferenceData="No"
 SASDatasetName="RELREC"
 Purpose="Tabulation"
 crt:Label="Related Records"
 crt:Structure="One record per relationship"
 crt:DomainKeys="STUDYID, RDOMAIN, USUBJID, IDVAR, IDVARVAL, RELTYPE, RELID"
 crt:Class="Special Purpose"
 crt:ArchiveLocationID="Location.TABLE19"
>
<!-- ItemRef in data set RELREC for variable STUDYID -->
 <ItemRef ItemOID="COL594"
  OrderNumber="1"
  Mandatory="Yes"
  KeySequence="1"
  Role="Identifier"
 />
<!-- ItemRef in data set RELREC for variable RDOMAIN -->
 <ItemRef ItemOID="COL591"
  OrderNumber="2"
  Mandatory="Yes"
  KeySequence="2"
  Role="Identifier"
 />
<!-- ItemRef in data set RELREC for variable USUBJID -->
 <ItemRef ItemOID="COL595"
  OrderNumber="3"
  Mandatory="Yes"
  KeySequence="3"
  Role="Identifier"
 />
<!-- ItemRef in data set RELREC for variable IDVAR -->
 <ItemRef ItemOID="COL589"
  OrderNumber="4"
  Mandatory="Yes"
  KeySequence="4"
  Role="Identifier"
 />
<!-- ItemRef in data set RELREC for variable IDVARVAL -->
 <ItemRef ItemOID="COL590"
  OrderNumber="5"
  Mandatory="Yes"
  KeySequence="5"
  Role="Identifier"
 />
<!-- ItemRef in data set RELREC for variable RELTYPE -->
 <ItemRef ItemOID="COL593"
  OrderNumber="6"
  Mandatory="Yes"
  KeySequence="6"
  Role="Record Qualifier"
 />
<!-- ItemRef in data set RELREC for variable RELID -->
 <ItemRef ItemOID="COL592"
  OrderNumber="7"
  Mandatory="Yes"
  KeySequence="7"
  Role="Identifier"
 />
 <crt:leaf ID="Location.TABLE19" xlink:href="../tabulations/relrec.xpt">
 <crt:title>relrec.xpt</crt:title>
 </crt:leaf>
</ItemGroupDef>
<!-- ************************************************************** -->
<!-- Defining ItemGroupDef for data set SUPPAE                    -->
<!-- ************************************************************** -->
<ItemGroupDef OID="TABLE22" Name="SUPPAE"
 Repeating="Yes"
 IsReferenceData="No"
 SASDatasetName="SUPPAE"
 Purpose="Tabulation"
 crt:Label="Supplemental Qualifiers (AE)"
 crt:Structure="One record per qualifier value"
 crt:DomainKeys="STUDYID, RDOMAIN, USUBJID, IDVAR, IDVARVAL, QNAM"
 crt:Class="Special Purpose"
 crt:ArchiveLocationID="Location.TABLE22"
>
<!-- ItemRef in data set SUPPAE for variable STUDYID -->
 <ItemRef ItemOID="COL627"
  OrderNumber="1"
  Mandatory="Yes"
  KeySequence="1"
  Role="Identifier"
 />
<!-- ItemRef in data set SUPPAE for variable RDOMAIN -->
 <ItemRef ItemOID="COL626"
  OrderNumber="2"
  Mandatory="Yes"
  KeySequence="2"
  Role="Identifier"
 />
<!-- ItemRef in data set SUPPAE for variable USUBJID -->
 <ItemRef ItemOID="COL628"
  OrderNumber="3"
  Mandatory="Yes"
  KeySequence="3"
  Role="Identifier"
 />
<!-- ItemRef in data set SUPPAE for variable IDVAR -->
 <ItemRef ItemOID="COL619"
  OrderNumber="4"
  Mandatory="Yes"
  KeySequence="4"
  Role="Identifier"
 />
<!-- ItemRef in data set SUPPAE for variable IDVARVAL -->
 <ItemRef ItemOID="COL620"
  OrderNumber="5"
  Mandatory="Yes"
  KeySequence="5"
  Role="Identifier"
 />
<!-- ItemRef in data set SUPPAE for variable QNAM -->
 <ItemRef ItemOID="COL623"
  OrderNumber="6"
  Mandatory="Yes"
  KeySequence="6"
  Role="Qualifier"
 />
<!-- ItemRef in data set SUPPAE for variable QLABEL -->
 <ItemRef ItemOID="COL622"
  OrderNumber="7"
  Mandatory="Yes"
  Role="Identifier"
 />
<!-- ItemRef in data set SUPPAE for variable QVAL -->
 <ItemRef ItemOID="COL625"
  OrderNumber="8"
  Mandatory="Yes"
  Role="Identifier"
 />
<!-- ItemRef in data set SUPPAE for variable QORIG -->
 <ItemRef ItemOID="COL624"
  OrderNumber="9"
  Mandatory="Yes"
  Role="Identifier"
 />
<!-- ItemRef in data set SUPPAE for variable QEVAL -->
 <ItemRef ItemOID="COL621"
  OrderNumber="10"
  Mandatory="Yes"
  Role="Identifier"
 />
 <crt:leaf ID="Location.TABLE22" xlink:href="../tabulations/suppae.xpt">
 <crt:title>suppae.xpt</crt:title>
 </crt:leaf>
</ItemGroupDef>
<!-- ************************************************************** -->
<!-- Defining ItemGroupDef for data set SUPPDS                    -->
<!-- ************************************************************** -->
<ItemGroupDef OID="TABLE24" Name="SUPPDS"
 Repeating="Yes"
 IsReferenceData="No"
 SASDatasetName="SUPPDS"
 Purpose="Tabulation"
 crt:Label="Supplemental Qualifiers (DS)"
 crt:Structure="One record per qualifier value"
 crt:DomainKeys="STUDYID, RDOMAIN, USUBJID, IDVAR, IDVARVAL, QNAM"
 crt:Class="Special Purpose"
 crt:ArchiveLocationID="Location.TABLE24"
>
<!-- ItemRef in data set SUPPDS for variable STUDYID -->
 <ItemRef ItemOID="COL646"
  OrderNumber="1"
  Mandatory="Yes"
  KeySequence="1"
  Role="Identifier"
 />
<!-- ItemRef in data set SUPPDS for variable RDOMAIN -->
 <ItemRef ItemOID="COL645"
  OrderNumber="2"
  Mandatory="Yes"
  KeySequence="2"
  Role="Identifier"
 />
<!-- ItemRef in data set SUPPDS for variable USUBJID -->
 <ItemRef ItemOID="COL647"
  OrderNumber="3"
  Mandatory="Yes"
  KeySequence="3"
  Role="Identifier"
 />
<!-- ItemRef in data set SUPPDS for variable IDVAR -->
 <ItemRef ItemOID="COL639"
  OrderNumber="4"
  Mandatory="Yes"
  KeySequence="4"
  Role="Identifier"
 />
<!-- ItemRef in data set SUPPDS for variable IDVARVAL -->
 <ItemRef ItemOID="COL640"
  OrderNumber="5"
  Mandatory="Yes"
  KeySequence="5"
  Role="Identifier"
 />
<!-- ItemRef in data set SUPPDS for variable QNAM -->
 <ItemRef ItemOID="COL642"
  OrderNumber="6"
  Mandatory="Yes"
  KeySequence="6"
  Role="Qualifier"
 />
<!-- ItemRef in data set SUPPDS for variable QLABEL -->
 <ItemRef ItemOID="COL641"
  OrderNumber="7"
  Mandatory="Yes"
  Role="Identifier"
 />
<!-- ItemRef in data set SUPPDS for variable QVAL -->
 <ItemRef ItemOID="COL644"
  OrderNumber="8"
  Mandatory="Yes"
  Role="Identifier"
 />
<!-- ItemRef in data set SUPPDS for variable QORIG -->
 <ItemRef ItemOID="COL643"
  OrderNumber="9"
  Mandatory="Yes"
  Role="Identifier"
 />
 <crt:leaf ID="Location.TABLE24" xlink:href="../tabulations/suppds.xpt">
 <crt:title>suppds.xpt</crt:title>
 </crt:leaf>
</ItemGroupDef>
<!-- ************************************************************** -->
<!-- Defining ItemGroupDef for data set SUPPMH                    -->
<!-- ************************************************************** -->
<ItemGroupDef OID="TABLE26" Name="SUPPMH"
 Repeating="Yes"
 IsReferenceData="No"
 SASDatasetName="SUPPMH"
 Purpose="Tabulation"
 crt:Label="Supplemental Qualifiers (MH)"
 crt:Structure="One record per qualifier value"
 crt:DomainKeys="STUDYID, RDOMAIN, USUBJID, IDVAR, IDVARVAL, QNAM"
 crt:Class="Special Purpose"
 crt:ArchiveLocationID="Location.TABLE26"
>
<!-- ItemRef in data set SUPPMH for variable STUDYID -->
 <ItemRef ItemOID="COL665"
  OrderNumber="1"
  Mandatory="Yes"
  KeySequence="1"
  Role="Identifier"
 />
<!-- ItemRef in data set SUPPMH for variable RDOMAIN -->
 <ItemRef ItemOID="COL664"
  OrderNumber="2"
  Mandatory="Yes"
  KeySequence="2"
  Role="Identifier"
 />
<!-- ItemRef in data set SUPPMH for variable USUBJID -->
 <ItemRef ItemOID="COL666"
  OrderNumber="3"
  Mandatory="Yes"
  KeySequence="3"
  Role="Identifier"
 />
<!-- ItemRef in data set SUPPMH for variable IDVAR -->
 <ItemRef ItemOID="COL658"
  OrderNumber="4"
  Mandatory="Yes"
  KeySequence="4"
  Role="Identifier"
 />
<!-- ItemRef in data set SUPPMH for variable IDVARVAL -->
 <ItemRef ItemOID="COL659"
  OrderNumber="5"
  Mandatory="Yes"
  KeySequence="5"
  Role="Identifier"
 />
<!-- ItemRef in data set SUPPMH for variable QNAM -->
 <ItemRef ItemOID="COL661"
  OrderNumber="6"
  Mandatory="Yes"
  KeySequence="6"
  Role="Qualifier"
 />
<!-- ItemRef in data set SUPPMH for variable QLABEL -->
 <ItemRef ItemOID="COL660"
  OrderNumber="7"
  Mandatory="Yes"
  Role="Identifier"
 />
<!-- ItemRef in data set SUPPMH for variable QVAL -->
 <ItemRef ItemOID="COL663"
  OrderNumber="8"
  Mandatory="Yes"
  Role="Identifier"
 />
<!-- ItemRef in data set SUPPMH for variable QORIG -->
 <ItemRef ItemOID="COL662"
  OrderNumber="9"
  Mandatory="Yes"
  Role="Identifier"
 />
 <crt:leaf ID="Location.TABLE26" xlink:href="../tabulations/suppmh.xpt">
 <crt:title>suppmh.xpt</crt:title>
 </crt:leaf>
</ItemGroupDef>
<!-- ************************************************************** -->
<!-- Defining ItemGroupDef for data set SUPPLB                    -->
<!-- ************************************************************** -->
<ItemGroupDef OID="TABLE25" Name="SUPPLB"
 Repeating="Yes"
 IsReferenceData="No"
 SASDatasetName="SUPPLB"
 Purpose="Tabulation"
 crt:Label="Supplemental Qualifiers (LB)"
 crt:Structure="One record per qualifier value"
 crt:DomainKeys="STUDYID, RDOMAIN, USUBJID, IDVAR, IDVARVAL, QNAM"
 crt:Class="Special Purpose"
 crt:ArchiveLocationID="Location.TABLE25"
>
<!-- ItemRef in data set SUPPLB for variable STUDYID -->
 <ItemRef ItemOID="COL656"
  OrderNumber="1"
  Mandatory="Yes"
  KeySequence="1"
  Role="Identifier"
 />
<!-- ItemRef in data set SUPPLB for variable RDOMAIN -->
 <ItemRef ItemOID="COL655"
  OrderNumber="2"
  Mandatory="Yes"
  KeySequence="2"
  Role="Identifier"
 />
<!-- ItemRef in data set SUPPLB for variable USUBJID -->
 <ItemRef ItemOID="COL657"
  OrderNumber="3"
  Mandatory="Yes"
  KeySequence="3"
  Role="Identifier"
 />
<!-- ItemRef in data set SUPPLB for variable IDVAR -->
 <ItemRef ItemOID="COL648"
  OrderNumber="4"
  Mandatory="Yes"
  KeySequence="4"
  Role="Identifier"
 />
<!-- ItemRef in data set SUPPLB for variable IDVARVAL -->
 <ItemRef ItemOID="COL649"
  OrderNumber="5"
  Mandatory="Yes"
  KeySequence="5"
  Role="Identifier"
 />
<!-- ItemRef in data set SUPPLB for variable QNAM -->
 <ItemRef ItemOID="COL652"
  OrderNumber="6"
  Mandatory="Yes"
  KeySequence="6"
  Role="Qualifier"
 />
<!-- ItemRef in data set SUPPLB for variable QLABEL -->
 <ItemRef ItemOID="COL651"
  OrderNumber="7"
  Mandatory="Yes"
  Role="Identifier"
 />
<!-- ItemRef in data set SUPPLB for variable QVAL -->
 <ItemRef ItemOID="COL654"
  OrderNumber="8"
  Mandatory="Yes"
  Role="Identifier"
 />
<!-- ItemRef in data set SUPPLB for variable QORIG -->
 <ItemRef ItemOID="COL653"
  OrderNumber="9"
  Mandatory="Yes"
  Role="Identifier"
 />
<!-- ItemRef in data set SUPPLB for variable QEVAL -->
 <ItemRef ItemOID="COL650"
  OrderNumber="10"
  Mandatory="Yes"
  Role="Identifier"
 />
 <crt:leaf ID="Location.TABLE25" xlink:href="../tabulations/supplb.xpt">
 <crt:title>supplb.xpt</crt:title>
 </crt:leaf>
</ItemGroupDef>
<!-- ************************************************************** -->
<!-- Defining ItemGroupDef for data set SUPPDM                    -->
<!-- ************************************************************** -->
<ItemGroupDef OID="TABLE23" Name="SUPPDM"
 Repeating="Yes"
 IsReferenceData="No"
 SASDatasetName="SUPPDM"
 Purpose="Tabulation"
 crt:Label="Supplemental Qualifiers (DM)"
 crt:Structure="One record per qualifier value"
 crt:DomainKeys="STUDYID, RDOMAIN, USUBJID, IDVAR, IDVARVAL, QNAM"
 crt:Class="Special Purpose"
 crt:ArchiveLocationID="Location.TABLE23"
>
<!-- ItemRef in data set SUPPDM for variable STUDYID -->
 <ItemRef ItemOID="COL637"
  OrderNumber="1"
  Mandatory="Yes"
  KeySequence="1"
  Role="Identifier"
 />
<!-- ItemRef in data set SUPPDM for variable RDOMAIN -->
 <ItemRef ItemOID="COL636"
  OrderNumber="2"
  Mandatory="Yes"
  KeySequence="2"
  Role="Identifier"
 />
<!-- ItemRef in data set SUPPDM for variable USUBJID -->
 <ItemRef ItemOID="COL638"
  OrderNumber="3"
  Mandatory="Yes"
  KeySequence="3"
  Role="Identifier"
 />
<!-- ItemRef in data set SUPPDM for variable IDVAR -->
 <ItemRef ItemOID="COL629"
  OrderNumber="4"
  Mandatory="Yes"
  KeySequence="4"
  Role="Identifier"
 />
<!-- ItemRef in data set SUPPDM for variable IDVARVAL -->
 <ItemRef ItemOID="COL630"
  OrderNumber="5"
  Mandatory="Yes"
  KeySequence="5"
  Role="Identifier"
 />
<!-- ItemRef in data set SUPPDM for variable QNAM -->
 <ItemRef ItemOID="COL633"
  OrderNumber="6"
  Mandatory="Yes"
  KeySequence="6"
  Role="Qualifier"
 />
<!-- ItemRef in data set SUPPDM for variable QLABEL -->
 <ItemRef ItemOID="COL632"
  OrderNumber="7"
  Mandatory="Yes"
  Role="Identifier"
 />
<!-- ItemRef in data set SUPPDM for variable QVAL -->
 <ItemRef ItemOID="COL635"
  OrderNumber="8"
  Mandatory="Yes"
  Role="Identifier"
 />
<!-- ItemRef in data set SUPPDM for variable QORIG -->
 <ItemRef ItemOID="COL634"
  OrderNumber="9"
  Mandatory="Yes"
  Role="Identifier"
 />
<!-- ItemRef in data set SUPPDM for variable QEVAL -->
 <ItemRef ItemOID="COL631"
  OrderNumber="10"
  Mandatory="Yes"
  Role="Identifier"
 />
 <crt:leaf ID="Location.TABLE23" xlink:href="../tabulations/suppdm.xpt">
 <crt:title>suppdm.xpt</crt:title>
 </crt:leaf>
</ItemGroupDef>
<!-- **************************************************************** -->
<!-- Defining ItemDef for all variables                               -->
<!-- **************************************************************** -->
<ItemDef OID="COL1" Name="AEBODSYS"
 DataType="text"
 Length="67 "
 SASFieldName="AEBODSYS"
 Origin="AE"
 Comment="Data from AE"
 crt:Label="Body System or Organ Class"
>
 <cp01:DataUsed>
  <cp01:SingleDataReference>
   <ItemGroupRef ItemGroupOID="TABLE11" Mandatory="No"/>
  </cp01:SingleDataReference>
 </cp01:DataUsed>
</ItemDef>
<ItemDef OID="COL2" Name="AEDECOD"
 DataType="text"
 Length="46 "
 SASFieldName="AEDECOD"
 Origin="AE"
 Comment="Data from AE"
 crt:Label="Dictionary-Derived Term"
>
 <cp01:DataUsed>
  <cp01:SingleDataReference>
   <ItemGroupRef ItemGroupOID="TABLE11" Mandatory="No"/>
  </cp01:SingleDataReference>
 </cp01:DataUsed>
</ItemDef>
<ItemDef OID="COL3" Name="AEDERMFN"
 DataType="float"
 Length="8 "
 SASFieldName="AEDERMFN"
 Origin="created here"
 Comment="Data from ADAE"
 crt:Label="Special Dermatologic-Related Event (1=Y)"
>
 <CodeListRef CodeListOID="CODELISTN7"/>
 <cp01:DataUsed>
  <cp01:SingleDataReference>
   <ItemGroupRef ItemGroupOID="TABLE1" Mandatory="No"/>
  </cp01:SingleDataReference>
 </cp01:DataUsed>
</ItemDef>
<ItemDef OID="COL4" Name="AEDICT"
 DataType="text"
 Length="56 "
 SASFieldName="AEDICT"
 Origin="created here"
 Comment="Data from ADAE"
 crt:Label="Coding Dictionary Information"
>
 <cp01:DataUsed>
  <cp01:SingleDataReference>
   <ItemGroupRef ItemGroupOID="TABLE1" Mandatory="No"/>
  </cp01:SingleDataReference>
 </cp01:DataUsed>
</ItemDef>
<ItemDef OID="COL5" Name="AEENDT"
 DataType="date"
 Length="8 "
 SASFieldName="AEENDT"
 Origin="created here"
 Comment="Data from AE"
 crt:Label="End Date/Time of Adverse Event"
 crt:DisplayFormat="DATE9"
>
 <cp01:DataUsed>
  <cp01:SingleDataReference>
   <ItemGroupRef ItemGroupOID="TABLE11" Mandatory="No"/>
  </cp01:SingleDataReference>
 </cp01:DataUsed>
</ItemDef>
<ItemDef OID="COL6" Name="AEENDY"
 DataType="float"
 Length="8 "
 SASFieldName="AEENDY"
 Origin="created here"
 Comment="Data from ADAE, ADSL"
 crt:Label="Study Day of End of Adverse Event"
>
 <cp01:DataUsed>
  <cp01:SingleDataReference>
   <ItemGroupRef ItemGroupOID="TABLE1" Mandatory="No"/>
  </cp01:SingleDataReference>
  <cp01:SingleDataReference>
   <ItemGroupRef ItemGroupOID="TABLE8" Mandatory="No"/>
  </cp01:SingleDataReference>
 </cp01:DataUsed>
</ItemDef>
<ItemDef OID="COL7" Name="AEFN"
 DataType="float"
 Length="8 "
 SASFieldName="AEFN"
 Origin="created here"
 Comment="Data from ADAE"
 crt:Label="1st AE Occurrence (1=Yes)"
>
 <CodeListRef CodeListOID="CODELISTN7"/>
 <cp01:DataUsed>
  <cp01:SingleDataReference>
   <ItemGroupRef ItemGroupOID="TABLE1" Mandatory="No"/>
  </cp01:SingleDataReference>
 </cp01:DataUsed>
</ItemDef>
<ItemDef OID="COL8" Name="AEREL"
 DataType="text"
 Length="8 "
 SASFieldName="AEREL"
 Origin="AE"
 Comment="Data from AE"
 crt:Label="Causality"
>
 <CodeListRef CodeListOID="CODELISTC2"/>
 <cp01:DataUsed>
  <cp01:SingleDataReference>
   <ItemGroupRef ItemGroupOID="TABLE11" Mandatory="No"/>
  </cp01:SingleDataReference>
 </cp01:DataUsed>
</ItemDef>
<ItemDef OID="COL9" Name="AESCAN"
 DataType="text"
 Length="1 "
 SASFieldName="AESCAN"
 Origin="AE"
 Comment="Data from AE"
 crt:Label="Involves Cancer"
>
 <CodeListRef CodeListOID="CODELISTC30"/>
 <cp01:DataUsed>
  <cp01:SingleDataReference>
   <ItemGroupRef ItemGroupOID="TABLE11" Mandatory="No"/>
  </cp01:SingleDataReference>
 </cp01:DataUsed>
</ItemDef>
<ItemDef OID="COL10" Name="AESCONG"
 DataType="text"
 Length="1 "
 SASFieldName="AESCONG"
 Origin="AE"
 Comment="Data from AE"
 crt:Label="Congenital Anomaly or Birth Defect"
>
 <CodeListRef CodeListOID="CODELISTC30"/>
 <cp01:DataUsed>
  <cp01:SingleDataReference>
   <ItemGroupRef ItemGroupOID="TABLE11" Mandatory="No"/>
  </cp01:SingleDataReference>
 </cp01:DataUsed>
</ItemDef>
<ItemDef OID="COL11" Name="AESDISAB"
 DataType="text"
 Length="1 "
 SASFieldName="AESDISAB"
 Origin="AE"
 Comment="Data from AE"
 crt:Label="Persist or Signif Disability/Incapacity"
>
 <CodeListRef CodeListOID="CODELISTC30"/>
 <cp01:DataUsed>
  <cp01:SingleDataReference>
   <ItemGroupRef ItemGroupOID="TABLE11" Mandatory="No"/>
  </cp01:SingleDataReference>
 </cp01:DataUsed>
</ItemDef>
<ItemDef OID="COL12" Name="AESDTH"
 DataType="text"
 Length="1 "
 SASFieldName="AESDTH"
 Origin="AE"
 Comment="Data from AE"
 crt:Label="Results in Death"
>
 <CodeListRef CodeListOID="CODELISTC30"/>
 <cp01:DataUsed>
  <cp01:SingleDataReference>
   <ItemGroupRef ItemGroupOID="TABLE11" Mandatory="No"/>
  </cp01:SingleDataReference>
 </cp01:DataUsed>
</ItemDef>
<ItemDef OID="COL13" Name="AESEQ"
 DataType="float"
 Length="8 "
 SASFieldName="AESEQ"
 Origin="AE"
 Comment="Data from AE"
 crt:Label="Sequence Number"
>
 <cp01:DataUsed>
  <cp01:SingleDataReference>
   <ItemGroupRef ItemGroupOID="TABLE11" Mandatory="No"/>
  </cp01:SingleDataReference>
 </cp01:DataUsed>
</ItemDef>
<ItemDef OID="COL14" Name="AESER"
 DataType="text"
 Length="1 "
 SASFieldName="AESER"
 Origin="AE"
 Comment="Data from AE"
 crt:Label="Serious Event"
>
 <CodeListRef CodeListOID="CODELISTC30"/>
 <cp01:DataUsed>
  <cp01:SingleDataReference>
   <ItemGroupRef ItemGroupOID="TABLE11" Mandatory="No"/>
  </cp01:SingleDataReference>
 </cp01:DataUsed>
</ItemDef>
<ItemDef OID="COL15" Name="AESERN"
 DataType="float"
 Length="8 "
 SASFieldName="AESERN"
 Origin="created here"
 Comment="Data from ADAE"
 crt:Label="Serious Event, Numeric"
>
 <CodeListRef CodeListOID="CODELISTN9"/>
 <cp01:DataUsed>
  <cp01:SingleDataReference>
   <ItemGroupRef ItemGroupOID="TABLE1" Mandatory="No"/>
  </cp01:SingleDataReference>
 </cp01:DataUsed>
</ItemDef>
<ItemDef OID="COL16" Name="AESEV"
 DataType="text"
 Length="8 "
 SASFieldName="AESEV"
 Origin="AE"
 Comment="Data from AE"
 crt:Label="Severity / Intensity"
>
 <CodeListRef CodeListOID="CODELISTC19"/>
 <cp01:DataUsed>
  <cp01:SingleDataReference>
   <ItemGroupRef ItemGroupOID="TABLE11" Mandatory="No"/>
  </cp01:SingleDataReference>
 </cp01:DataUsed>
</ItemDef>
<ItemDef OID="COL17" Name="AESHOSP"
 DataType="text"
 Length="1 "
 SASFieldName="AESHOSP"
 Origin="AE"
 Comment="Data from AE"
 crt:Label="Requires or Prolongs Hospitalization"
>
 <CodeListRef CodeListOID="CODELISTC30"/>
 <cp01:DataUsed>
  <cp01:SingleDataReference>
   <ItemGroupRef ItemGroupOID="TABLE11" Mandatory="No"/>
  </cp01:SingleDataReference>
 </cp01:DataUsed>
</ItemDef>
<ItemDef OID="COL18" Name="AESLIFE"
 DataType="text"
 Length="1 "
 SASFieldName="AESLIFE"
 Origin="AE"
 Comment="Data from AE"
 crt:Label="Is Life Threatening"
>
 <CodeListRef CodeListOID="CODELISTC30"/>
 <cp01:DataUsed>
  <cp01:SingleDataReference>
   <ItemGroupRef ItemGroupOID="TABLE11" Mandatory="No"/>
  </cp01:SingleDataReference>
 </cp01:DataUsed>
</ItemDef>
<ItemDef OID="COL19" Name="AESTDT"
 DataType="date"
 Length="8 "
 SASFieldName="AESTDT"
 Origin="created here"
 Comment="Data from AE"
 crt:Label="Start Date/Time of Adverse Event"
 crt:DisplayFormat="DATE9"
>
 <cp01:DataUsed>
  <cp01:SingleDataReference>
   <ItemGroupRef ItemGroupOID="TABLE11" Mandatory="No"/>
  </cp01:SingleDataReference>
 </cp01:DataUsed>
</ItemDef>
<ItemDef OID="COL20" Name="AESTDTF"
 DataType="text"
 Length="1 "
 SASFieldName="AESTDTF"
 Origin="created here"
 Comment="Data from ADAE"
 crt:Label="Imputed Date Flag"
>
 <CodeListRef CodeListOID="CODELISTC10"/>
 <cp01:DataUsed>
  <cp01:SingleDataReference>
   <ItemGroupRef ItemGroupOID="TABLE1" Mandatory="No"/>
  </cp01:SingleDataReference>
 </cp01:DataUsed>
</ItemDef>
<ItemDef OID="COL21" Name="AESTDY"
 DataType="float"
 Length="8 "
 SASFieldName="AESTDY"
 Origin="created here"
 Comment="Data from ADAE, ADSL"
 crt:Label="Study Day of Start of Adverse Event"
>
 <cp01:DataUsed>
  <cp01:SingleDataReference>
   <ItemGroupRef ItemGroupOID="TABLE1" Mandatory="No"/>
  </cp01:SingleDataReference>
  <cp01:SingleDataReference>
   <ItemGroupRef ItemGroupOID="TABLE8" Mandatory="No"/>
  </cp01:SingleDataReference>
 </cp01:DataUsed>
</ItemDef>
<ItemDef OID="COL22" Name="AETERM"
 DataType="text"
 Length="13 "
 SASFieldName="AETERM"
 Origin="AE"
 Comment="Data from AE"
 crt:Label="Reported Term for the Adverse Event"
>
 <cp01:DataUsed>
  <cp01:SingleDataReference>
   <ItemGroupRef ItemGroupOID="TABLE11" Mandatory="No"/>
  </cp01:SingleDataReference>
 </cp01:DataUsed>
</ItemDef>
<ItemDef OID="COL23" Name="AGE"
 DataType="float"
 Length="8 "
 SASFieldName="AGE"
 Origin="DM"
 Comment="Data from ADSL"
 crt:Label="Age in AGEU at RFSTDTC"
>
 <cp01:DataUsed>
  <cp01:SingleDataReference>
   <ItemGroupRef ItemGroupOID="TABLE8" Mandatory="No"/>
  </cp01:SingleDataReference>
 </cp01:DataUsed>
</ItemDef>
<ItemDef OID="COL24" Name="AGEGRP"
 DataType="text"
 Length="5 "
 SASFieldName="AGEGRP"
 Origin="ADSL"
 Comment="Data from ADSL"
 crt:Label="Age Group"
>
 <CodeListRef CodeListOID="CODELISTC3"/>
 <cp01:DataUsed>
  <cp01:SingleDataReference>
   <ItemGroupRef ItemGroupOID="TABLE8" Mandatory="No"/>
  </cp01:SingleDataReference>
 </cp01:DataUsed>
</ItemDef>
<ItemDef OID="COL25" Name="AGEGRPN"
 DataType="float"
 Length="8 "
 SASFieldName="AGEGRPN"
 Origin="ADSL"
 Comment="Data from ADSL"
 crt:Label="Age Group, Numeric"
>
 <CodeListRef CodeListOID="CODELISTN2"/>
 <cp01:DataUsed>
  <cp01:SingleDataReference>
   <ItemGroupRef ItemGroupOID="TABLE8" Mandatory="No"/>
  </cp01:SingleDataReference>
 </cp01:DataUsed>
</ItemDef>
<ItemDef OID="COL26" Name="ANLSTDY"
 DataType="float"
 Length="8 "
 SASFieldName="ANLSTDY"
 Origin="created here"
 Comment="Data from ADAE, ADSL"
 crt:Label="Analysis Start Day"
>
 <cp01:DataUsed>
  <cp01:SingleDataReference>
   <ItemGroupRef ItemGroupOID="TABLE1" Mandatory="No"/>
  </cp01:SingleDataReference>
  <cp01:SingleDataReference>
   <ItemGroupRef ItemGroupOID="TABLE8" Mandatory="No"/>
  </cp01:SingleDataReference>
 </cp01:DataUsed>
</ItemDef>
<ItemDef OID="COL27" Name="BODFN"
 DataType="float"
 Length="8 "
 SASFieldName="BODFN"
 Origin="created here"
 Comment="Data from ADAE"
 crt:Label="1st Occurrence of SOC (1=Yes)"
>
 <CodeListRef CodeListOID="CODELISTN7"/>
 <cp01:DataUsed>
  <cp01:SingleDataReference>
   <ItemGroupRef ItemGroupOID="TABLE1" Mandatory="No"/>
  </cp01:SingleDataReference>
 </cp01:DataUsed>
</ItemDef>
<ItemDef OID="COL28" Name="COMPLT24"
 DataType="text"
 Length="1 "
 SASFieldName="COMPLT24"
 Origin="ADSL"
 Comment="Data from ADSL"
 crt:Label="Completers of Week 24 Population Flag"
>
 <CodeListRef CodeListOID="CODELISTC30"/>
 <cp01:DataUsed>
  <cp01:SingleDataReference>
   <ItemGroupRef ItemGroupOID="TABLE8" Mandatory="No"/>
  </cp01:SingleDataReference>
 </cp01:DataUsed>
</ItemDef>
<ItemDef OID="COL29" Name="DECODFN"
 DataType="float"
 Length="8 "
 SASFieldName="DECODFN"
 Origin="created here"
 Comment="Data from ADAE"
 crt:Label="1st Occurrence of preferred term (1=Yes)"
>
 <CodeListRef CodeListOID="CODELISTN7"/>
 <cp01:DataUsed>
  <cp01:SingleDataReference>
   <ItemGroupRef ItemGroupOID="TABLE1" Mandatory="No"/>
  </cp01:SingleDataReference>
 </cp01:DataUsed>
</ItemDef>
<ItemDef OID="COL30" Name="DOMAIN"
 DataType="text"
 Length="8 "
 SASFieldName="DOMAIN"
 Origin="created here"
 Comment="Data from ADAE"
 crt:Label="Domain Abbreviation"
>
 <cp01:DataUsed>
  <cp01:SingleDataReference>
   <ItemGroupRef ItemGroupOID="TABLE1" Mandatory="No"/>
  </cp01:SingleDataReference>
 </cp01:DataUsed>
</ItemDef>
<ItemDef OID="COL31" Name="DSREASAE"
 DataType="text"
 Length="1 "
 SASFieldName="DSREASAE"
 Origin="ADSL"
 Comment="Data from ADSL"
 crt:Label="Discontinued due to AE?"
>
 <CodeListRef CodeListOID="CODELISTC31"/>
 <cp01:DataUsed>
  <cp01:SingleDataReference>
   <ItemGroupRef ItemGroupOID="TABLE8" Mandatory="No"/>
  </cp01:SingleDataReference>
 </cp01:DataUsed>
</ItemDef>
<ItemDef OID="COL32" Name="EFFICACY"
 DataType="text"
 Length="1 "
 SASFieldName="EFFICACY"
 Origin="ADSL"
 Comment="Data from ADSL"
 crt:Label="Efficacy Population Flag"
>
 <CodeListRef CodeListOID="CODELISTC30"/>
 <cp01:DataUsed>
  <cp01:SingleDataReference>
   <ItemGroupRef ItemGroupOID="TABLE8" Mandatory="No"/>
  </cp01:SingleDataReference>
 </cp01:DataUsed>
</ItemDef>
<ItemDef OID="COL33" Name="HLGTERM"
 DataType="text"
 Length="120 "
 SASFieldName="HLGTERM"
 Origin="SUPPAE"
 Comment="Data from SUPPAE"
 crt:Label="High Level Group Term"
>
 <cp01:DataUsed>
  <cp01:SingleDataReference>
   <ItemGroupRef ItemGroupOID="TABLE22" Mandatory="No"/>
  </cp01:SingleDataReference>
 </cp01:DataUsed>
</ItemDef>
<ItemDef OID="COL34" Name="HLTERM"
 DataType="text"
 Length="120 "
 SASFieldName="HLTERM"
 Origin="SUPPAE"
 Comment="Data from SUPPAE"
 crt:Label="High Level Term"
>
 <cp01:DataUsed>
  <cp01:SingleDataReference>
   <ItemGroupRef ItemGroupOID="TABLE22" Mandatory="No"/>
  </cp01:SingleDataReference>
 </cp01:DataUsed>
</ItemDef>
<ItemDef OID="COL35" Name="ITT"
 DataType="text"
 Length="1 "
 SASFieldName="ITT"
 Origin="ADSL"
 Comment="Data from ADSL"
 crt:Label="Intent to Treat Population Flag"
>
 <CodeListRef CodeListOID="CODELISTC30"/>
 <cp01:DataUsed>
  <cp01:SingleDataReference>
   <ItemGroupRef ItemGroupOID="TABLE8" Mandatory="No"/>
  </cp01:SingleDataReference>
 </cp01:DataUsed>
</ItemDef>
<ItemDef OID="COL36" Name="LLTERM"
 DataType="text"
 Length="120 "
 SASFieldName="LLTERM"
 Origin="SUPPAE"
 Comment="Data from SUPPAE"
 crt:Label="Lower Level Term"
>
 <cp01:DataUsed>
  <cp01:SingleDataReference>
   <ItemGroupRef ItemGroupOID="TABLE22" Mandatory="No"/>
  </cp01:SingleDataReference>
 </cp01:DataUsed>
</ItemDef>
<ItemDef OID="COL37" Name="LSTDOSDT"
 DataType="date"
 Length="8 "
 SASFieldName="LSTDOSDT"
 Origin="ADSL"
 Comment="Data from ADSL"
 crt:Label="Date of Last Dose"
 crt:DisplayFormat="DATE9"
>
 <cp01:DataUsed>
  <cp01:SingleDataReference>
   <ItemGroupRef ItemGroupOID="TABLE8" Mandatory="No"/>
  </cp01:SingleDataReference>
 </cp01:DataUsed>
</ItemDef>
<ItemDef OID="COL38" Name="ONTRTFL"
 DataType="text"
 Length="1 "
 SASFieldName="ONTRTFL"
 Origin="created here"
 Comment="Data from ADAE"
 crt:Label="On or Off Study Treatment Flag"
>
 <CodeListRef CodeListOID="CODELISTC30"/>
 <cp01:DataUsed>
  <cp01:SingleDataReference>
   <ItemGroupRef ItemGroupOID="TABLE1" Mandatory="No"/>
  </cp01:SingleDataReference>
 </cp01:DataUsed>
</ItemDef>
<ItemDef OID="COL39" Name="RACE"
 DataType="text"
 Length="78 "
 SASFieldName="RACE"
 Origin="DM"
 Comment="Data from ADSL"
 crt:Label="Race"
>
 <CodeListRef CodeListOID="CODELISTC1"/>
 <cp01:DataUsed>
  <cp01:SingleDataReference>
   <ItemGroupRef ItemGroupOID="TABLE8" Mandatory="No"/>
  </cp01:SingleDataReference>
 </cp01:DataUsed>
</ItemDef>
<ItemDef OID="COL40" Name="RACEN"
 DataType="float"
 Length="8 "
 SASFieldName="RACEN"
 Origin="ADSL"
 Comment="Data from ADSL"
 crt:Label="Race, Numeric"
>
 <CodeListRef CodeListOID="CODELISTN1"/>
 <cp01:DataUsed>
  <cp01:SingleDataReference>
   <ItemGroupRef ItemGroupOID="TABLE8" Mandatory="No"/>
  </cp01:SingleDataReference>
 </cp01:DataUsed>
</ItemDef>
<ItemDef OID="COL41" Name="SAEFN"
 DataType="float"
 Length="8 "
 SASFieldName="SAEFN"
 Origin="created here"
 Comment="Data from ADAE"
 crt:Label="1st Serious Occurrence (1=Yes)"
>
 <CodeListRef CodeListOID="CODELISTN7"/>
 <cp01:DataUsed>
  <cp01:SingleDataReference>
   <ItemGroupRef ItemGroupOID="TABLE1" Mandatory="No"/>
  </cp01:SingleDataReference>
 </cp01:DataUsed>
</ItemDef>
<ItemDef OID="COL42" Name="SAFETY"
 DataType="text"
 Length="1 "
 SASFieldName="SAFETY"
 Origin="ADSL"
 Comment="Data from ADSL"
 crt:Label="Safety Population Flag"
>
 <CodeListRef CodeListOID="CODELISTC30"/>
 <cp01:DataUsed>
  <cp01:SingleDataReference>
   <ItemGroupRef ItemGroupOID="TABLE8" Mandatory="No"/>
  </cp01:SingleDataReference>
 </cp01:DataUsed>
</ItemDef>
<ItemDef OID="COL43" Name="SBODFN"
 DataType="float"
 Length="8 "
 SASFieldName="SBODFN"
 Origin="created here"
 Comment="Data from ADAE"
 crt:Label="1st Serious Ocurrence of SOC (1=Yes)"
>
 <CodeListRef CodeListOID="CODELISTN7"/>
 <cp01:DataUsed>
  <cp01:SingleDataReference>
   <ItemGroupRef ItemGroupOID="TABLE1" Mandatory="No"/>
  </cp01:SingleDataReference>
 </cp01:DataUsed>
</ItemDef>
<ItemDef OID="COL44" Name="SDECODFN"
 DataType="float"
 Length="8 "
 SASFieldName="SDECODFN"
 Origin="created here"
 Comment="Data from ADAE"
 crt:Label="1st Serious Ocurrence of Term (1=Yes)"
>
 <CodeListRef CodeListOID="CODELISTN7"/>
 <cp01:DataUsed>
  <cp01:SingleDataReference>
   <ItemGroupRef ItemGroupOID="TABLE1" Mandatory="No"/>
  </cp01:SingleDataReference>
 </cp01:DataUsed>
</ItemDef>
<ItemDef OID="COL45" Name="SEX"
 DataType="text"
 Length="1 "
 SASFieldName="SEX"
 Origin="DM"
 Comment="Data from ADSL"
 crt:Label="Sex"
>
 <CodeListRef CodeListOID="CODELISTC20"/>
 <cp01:DataUsed>
  <cp01:SingleDataReference>
   <ItemGroupRef ItemGroupOID="TABLE8" Mandatory="No"/>
  </cp01:SingleDataReference>
 </cp01:DataUsed>
</ItemDef>
<ItemDef OID="COL46" Name="SITEID"
 DataType="text"
 Length="3 "
 SASFieldName="SITEID"
 Origin="DM"
 Comment="Data from ADSL"
 crt:Label="Study Site Identifier"
>
 <cp01:DataUsed>
  <cp01:SingleDataReference>
   <ItemGroupRef ItemGroupOID="TABLE8" Mandatory="No"/>
  </cp01:SingleDataReference>
 </cp01:DataUsed>
</ItemDef>
<ItemDef OID="COL47" Name="STUDYID"
 DataType="text"
 Length="12 "
 SASFieldName="STUDYID"
 Origin="DM"
 Comment="Data from ADSL"
 crt:Label="Study Identifier"
>
 <cp01:DataUsed>
  <cp01:SingleDataReference>
   <ItemGroupRef ItemGroupOID="TABLE8" Mandatory="No"/>
  </cp01:SingleDataReference>
 </cp01:DataUsed>
</ItemDef>
<ItemDef OID="COL48" Name="SUBJID"
 DataType="text"
 Length="4 "
 SASFieldName="SUBJID"
 Origin="DM"
 Comment="Data from ADSL"
 crt:Label="Subject Identifier for the Study"
>
 <cp01:DataUsed>
  <cp01:SingleDataReference>
   <ItemGroupRef ItemGroupOID="TABLE8" Mandatory="No"/>
  </cp01:SingleDataReference>
 </cp01:DataUsed>
</ItemDef>
<ItemDef OID="COL49" Name="TRTDUR"
 DataType="float"
 Length="8 "
 SASFieldName="TRTDUR"
 Origin="ADSL"
 Comment="Data from ADSL"
 crt:Label="Duration of treatment (days)"
>
 <cp01:DataUsed>
  <cp01:SingleDataReference>
   <ItemGroupRef ItemGroupOID="TABLE8" Mandatory="No"/>
  </cp01:SingleDataReference>
 </cp01:DataUsed>
</ItemDef>
<ItemDef OID="COL50" Name="TRTEMFL"
 DataType="text"
 Length="1 "
 SASFieldName="TRTEMFL"
 Origin="created here"
 Comment="Data from ADAE, ADSL"
 crt:Label="Treament Emergent Flag"
>
 <CodeListRef CodeListOID="CODELISTC30"/>
 <cp01:DataUsed>
  <cp01:SingleDataReference>
   <ItemGroupRef ItemGroupOID="TABLE1" Mandatory="No"/>
  </cp01:SingleDataReference>
  <cp01:SingleDataReference>
   <ItemGroupRef ItemGroupOID="TABLE8" Mandatory="No"/>
  </cp01:SingleDataReference>
 </cp01:DataUsed>
</ItemDef>
<ItemDef OID="COL51" Name="TRTP"
 DataType="text"
 Length="20 "
 SASFieldName="TRTP"
 Origin="ADSL"
 Comment="Data from ADSL"
 crt:Label="ADaM Description of Planned Arm"
>
 <CodeListRef CodeListOID="CODELISTC5"/>
 <cp01:DataUsed>
  <cp01:SingleDataReference>
   <ItemGroupRef ItemGroupOID="TABLE8" Mandatory="No"/>
  </cp01:SingleDataReference>
 </cp01:DataUsed>
</ItemDef>
<ItemDef OID="COL52" Name="TRTPCD"
 DataType="text"
 Length="8 "
 SASFieldName="TRTPCD"
 Origin="ADSL"
 Comment="Data from ADSL"
 crt:Label="ADaM Planned Arm Code"
>
 <CodeListRef CodeListOID="CODELISTC6"/>
 <cp01:DataUsed>
  <cp01:SingleDataReference>
   <ItemGroupRef ItemGroupOID="TABLE8" Mandatory="No"/>
  </cp01:SingleDataReference>
 </cp01:DataUsed>
</ItemDef>
<ItemDef OID="COL53" Name="TRTPN"
 DataType="float"
 Length="8 "
 SASFieldName="TRTPN"
 Origin="ADSL"
 Comment="Data from ADSL"
 crt:Label="ADaM Planned Arm Code, Numeric"
>
 <CodeListRef CodeListOID="CODELISTN3"/>
 <cp01:DataUsed>
  <cp01:SingleDataReference>
   <ItemGroupRef ItemGroupOID="TABLE8" Mandatory="No"/>
  </cp01:SingleDataReference>
 </cp01:DataUsed>
</ItemDef>
<ItemDef OID="COL54" Name="TRTSTDT"
 DataType="date"
 Length="8 "
 SASFieldName="TRTSTDT"
 Origin="ADSL"
 Comment="Data from ADSL"
 crt:Label="Start Date of Treatment"
 crt:DisplayFormat="DATE9"
>
 <cp01:DataUsed>
  <cp01:SingleDataReference>
   <ItemGroupRef ItemGroupOID="TABLE8" Mandatory="No"/>
  </cp01:SingleDataReference>
 </cp01:DataUsed>
</ItemDef>
<ItemDef OID="COL55" Name="USUBJID"
 DataType="text"
 Length="11 "
 SASFieldName="USUBJID"
 Origin="DM"
 Comment="Data from ADSL"
 crt:Label="Unique Subject Identifier"
>
 <cp01:DataUsed>
  <cp01:SingleDataReference>
   <ItemGroupRef ItemGroupOID="TABLE8" Mandatory="No"/>
  </cp01:SingleDataReference>
 </cp01:DataUsed>
</ItemDef>
<ItemDef OID="COL56" Name="AGE"
 DataType="float"
 Length="8 "
 SASFieldName="AGE"
 Origin="DM"
 Comment="Data from ADSL"
 crt:Label="Age in AGEU at RFSTDTC"
>
 <cp01:DataUsed>
  <cp01:SingleDataReference>
   <ItemGroupRef ItemGroupOID="TABLE8" Mandatory="No"/>
  </cp01:SingleDataReference>
 </cp01:DataUsed>
</ItemDef>
<ItemDef OID="COL57" Name="AGEGRP"
 DataType="text"
 Length="5 "
 SASFieldName="AGEGRP"
 Origin="ADSL"
 Comment="Data from ADSL"
 crt:Label="Age Group"
>
 <CodeListRef CodeListOID="CODELISTC3"/>
 <cp01:DataUsed>
  <cp01:SingleDataReference>
   <ItemGroupRef ItemGroupOID="TABLE8" Mandatory="No"/>
  </cp01:SingleDataReference>
 </cp01:DataUsed>
</ItemDef>
<ItemDef OID="COL58" Name="AGEGRPN"
 DataType="float"
 Length="8 "
 SASFieldName="AGEGRPN"
 Origin="ADSL"
 Comment="Data from ADSL"
 crt:Label="Age Group, Numeric"
>
 <CodeListRef CodeListOID="CODELISTN2"/>
 <cp01:DataUsed>
  <cp01:SingleDataReference>
   <ItemGroupRef ItemGroupOID="TABLE8" Mandatory="No"/>
  </cp01:SingleDataReference>
 </cp01:DataUsed>
</ItemDef>
<ItemDef OID="COL59" Name="ANLDY"
 DataType="float"
 Length="8 "
 SASFieldName="ANLDY"
 Origin="created here"
 Comment="Data from ADLBC, ADSL"
 crt:Label="Analysis Day"
>
 <cp01:DataUsed>
  <cp01:SingleDataReference>
   <ItemGroupRef ItemGroupOID="TABLE2" Mandatory="No"/>
  </cp01:SingleDataReference>
  <cp01:SingleDataReference>
   <ItemGroupRef ItemGroupOID="TABLE8" Mandatory="No"/>
  </cp01:SingleDataReference>
 </cp01:DataUsed>
</ItemDef>
<ItemDef OID="COL60" Name="BLHI"
 DataType="float"
 Length="8 "
 SASFieldName="BLHI"
 Origin="created here"
 Comment="Data from ADLBC"
 crt:Label="Baseline ULN"
>
 <cp01:DataUsed>
  <cp01:SingleDataReference>
   <ItemGroupRef ItemGroupOID="TABLE2" Mandatory="No"/>
  </cp01:SingleDataReference>
 </cp01:DataUsed>
</ItemDef>
<ItemDef OID="COL61" Name="BLLO"
 DataType="float"
 Length="8 "
 SASFieldName="BLLO"
 Origin="created here"
 Comment="Data from ADLBC"
 crt:Label="Baseline LLN"
>
 <cp01:DataUsed>
  <cp01:SingleDataReference>
   <ItemGroupRef ItemGroupOID="TABLE2" Mandatory="No"/>
  </cp01:SingleDataReference>
 </cp01:DataUsed>
</ItemDef>
<ItemDef OID="COL62" Name="BLSTRESN"
 DataType="float"
 Length="8 "
 SASFieldName="BLSTRESN"
 Origin="created here"
 Comment="Data from ADLBC"
 crt:Label="Baseline Result"
>
 <cp01:DataUsed>
  <cp01:SingleDataReference>
   <ItemGroupRef ItemGroupOID="TABLE2" Mandatory="No"/>
  </cp01:SingleDataReference>
 </cp01:DataUsed>
</ItemDef>
<ItemDef OID="COL63" Name="BLTMSHI"
 DataType="float"
 Length="8 "
 SASFieldName="BLTMSHI"
 Origin="created here"
 Comment="Data from ADLBC"
 crt:Label="Baseline Times ULN"
>
 <cp01:DataUsed>
  <cp01:SingleDataReference>
   <ItemGroupRef ItemGroupOID="TABLE2" Mandatory="No"/>
  </cp01:SingleDataReference>
 </cp01:DataUsed>
</ItemDef>
<ItemDef OID="COL64" Name="BLTMSLO"
 DataType="float"
 Length="8 "
 SASFieldName="BLTMSLO"
 Origin="created here"
 Comment="Data from ADLBC"
 crt:Label="Baseline Times LLN"
>
 <cp01:DataUsed>
  <cp01:SingleDataReference>
   <ItemGroupRef ItemGroupOID="TABLE2" Mandatory="No"/>
  </cp01:SingleDataReference>
 </cp01:DataUsed>
</ItemDef>
<ItemDef OID="COL65" Name="BLTRFL"
 DataType="text"
 Length="1 "
 SASFieldName="BLTRFL"
 Origin="created here"
 Comment="Data from ADLBC"
 crt:Label="Bsln Result Abnormal, threshold range"
>
 <CodeListRef CodeListOID="CODELISTC16"/>
 <cp01:DataUsed>
  <cp01:SingleDataReference>
   <ItemGroupRef ItemGroupOID="TABLE2" Mandatory="No"/>
  </cp01:SingleDataReference>
 </cp01:DataUsed>
</ItemDef>
<ItemDef OID="COL66" Name="CHSTRESN"
 DataType="float"
 Length="8 "
 SASFieldName="CHSTRESN"
 Origin="created here"
 Comment="Data from ADLBC"
 crt:Label="Result Change from Baseline"
>
 <cp01:DataUsed>
  <cp01:SingleDataReference>
   <ItemGroupRef ItemGroupOID="TABLE2" Mandatory="No"/>
  </cp01:SingleDataReference>
 </cp01:DataUsed>
</ItemDef>
<ItemDef OID="COL67" Name="COMPLT24"
 DataType="text"
 Length="1 "
 SASFieldName="COMPLT24"
 Origin="ADSL"
 Comment="Data from ADSL"
 crt:Label="Completers of Week 24 Population Flag"
>
 <CodeListRef CodeListOID="CODELISTC30"/>
 <cp01:DataUsed>
  <cp01:SingleDataReference>
   <ItemGroupRef ItemGroupOID="TABLE8" Mandatory="No"/>
  </cp01:SingleDataReference>
 </cp01:DataUsed>
</ItemDef>
<ItemDef OID="COL68" Name="DOMAIN"
 DataType="text"
 Length="8 "
 SASFieldName="DOMAIN"
 Origin="created here"
 Comment="Data from ADLBC"
 crt:Label="Domain Abbreviation"
>
 <cp01:DataUsed>
  <cp01:SingleDataReference>
   <ItemGroupRef ItemGroupOID="TABLE2" Mandatory="No"/>
  </cp01:SingleDataReference>
 </cp01:DataUsed>
</ItemDef>
<ItemDef OID="COL69" Name="DSREASAE"
 DataType="text"
 Length="1 "
 SASFieldName="DSREASAE"
 Origin="ADSL"
 Comment="Data from ADSL"
 crt:Label="Discontinued due to AE?"
>
 <CodeListRef CodeListOID="CODELISTC31"/>
 <cp01:DataUsed>
  <cp01:SingleDataReference>
   <ItemGroupRef ItemGroupOID="TABLE8" Mandatory="No"/>
  </cp01:SingleDataReference>
 </cp01:DataUsed>
</ItemDef>
<ItemDef OID="COL70" Name="EFFICACY"
 DataType="text"
 Length="1 "
 SASFieldName="EFFICACY"
 Origin="ADSL"
 Comment="Data from ADSL"
 crt:Label="Efficacy Population Flag"
>
 <CodeListRef CodeListOID="CODELISTC30"/>
 <cp01:DataUsed>
  <cp01:SingleDataReference>
   <ItemGroupRef ItemGroupOID="TABLE8" Mandatory="No"/>
  </cp01:SingleDataReference>
 </cp01:DataUsed>
</ItemDef>
<ItemDef OID="COL71" Name="ENTMTFL"
 DataType="text"
 Length="1 "
 SASFieldName="ENTMTFL"
 Origin="created here"
 Comment="Data from ADLBC"
 crt:Label="End of Treatment"
>
 <CodeListRef CodeListOID="CODELISTC31"/>
 <cp01:DataUsed>
  <cp01:SingleDataReference>
   <ItemGroupRef ItemGroupOID="TABLE2" Mandatory="No"/>
  </cp01:SingleDataReference>
 </cp01:DataUsed>
</ItemDef>
<ItemDef OID="COL72" Name="ITT"
 DataType="text"
 Length="1 "
 SASFieldName="ITT"
 Origin="ADSL"
 Comment="Data from ADSL"
 crt:Label="Intent to Treat Population Flag"
>
 <CodeListRef CodeListOID="CODELISTC30"/>
 <cp01:DataUsed>
  <cp01:SingleDataReference>
   <ItemGroupRef ItemGroupOID="TABLE8" Mandatory="No"/>
  </cp01:SingleDataReference>
 </cp01:DataUsed>
</ItemDef>
<ItemDef OID="COL73" Name="LBBLFL"
 DataType="text"
 Length="1 "
 SASFieldName="LBBLFL"
 Origin="created here"
 Comment="Data from ADLBC"
 crt:Label="Baseline Flag"
>
 <CodeListRef CodeListOID="CODELISTC31"/>
 <cp01:DataUsed>
  <cp01:SingleDataReference>
   <ItemGroupRef ItemGroupOID="TABLE2" Mandatory="No"/>
  </cp01:SingleDataReference>
 </cp01:DataUsed>
</ItemDef>
<ItemDef OID="COL74" Name="LBDT"
 DataType="date"
 Length="8 "
 SASFieldName="LBDT"
 Origin="created here"
 Comment="Data from LB"
 crt:Label="Date of Specimen Collection"
 crt:DisplayFormat="DATE9"
>
 <cp01:DataUsed>
  <cp01:SingleDataReference>
   <ItemGroupRef ItemGroupOID="TABLE16" Mandatory="No"/>
  </cp01:SingleDataReference>
 </cp01:DataUsed>
</ItemDef>
<ItemDef OID="COL75" Name="LBNRIND"
 DataType="text"
 Length="1 "
 SASFieldName="LBNRIND"
 Origin="LB"
 Comment="Data from LB"
 crt:Label="Reference Range Indicator"
>
 <cp01:DataUsed>
  <cp01:SingleDataReference>
   <ItemGroupRef ItemGroupOID="TABLE16" Mandatory="No"/>
  </cp01:SingleDataReference>
 </cp01:DataUsed>
</ItemDef>
<ItemDef OID="COL76" Name="LBPRFL"
 DataType="text"
 Length="1 "
 SASFieldName="LBPRFL"
 Origin="created here"
 Comment="Data from ADLBC"
 crt:Label="Result Abnormal , compared to prev visit"
>
 <CodeListRef CodeListOID="CODELISTC16"/>
 <cp01:DataUsed>
  <cp01:SingleDataReference>
   <ItemGroupRef ItemGroupOID="TABLE2" Mandatory="No"/>
  </cp01:SingleDataReference>
 </cp01:DataUsed>
</ItemDef>
<ItemDef OID="COL77" Name="LBPRMXFL"
 DataType="text"
 Length="1 "
 SASFieldName="LBPRMXFL"
 Origin="created here"
 Comment="Data from ADLBC"
 crt:Label="Most Extreme, comparison to prev visit"
>
 <CodeListRef CodeListOID="CODELISTC31"/>
 <cp01:DataUsed>
  <cp01:SingleDataReference>
   <ItemGroupRef ItemGroupOID="TABLE2" Mandatory="No"/>
  </cp01:SingleDataReference>
 </cp01:DataUsed>
</ItemDef>
<ItemDef OID="COL78" Name="LBPRRESN"
 DataType="float"
 Length="8 "
 SASFieldName="LBPRRESN"
 Origin="created here"
 Comment="Data from ADLBC"
 crt:Label="Change from Previous Visit, relative to"
>
 <cp01:DataUsed>
  <cp01:SingleDataReference>
   <ItemGroupRef ItemGroupOID="TABLE2" Mandatory="No"/>
  </cp01:SingleDataReference>
 </cp01:DataUsed>
</ItemDef>
<ItemDef OID="COL79" Name="LBSTNRHI"
 DataType="float"
 Length="8 "
 SASFieldName="LBSTNRHI"
 Origin="LB"
 Comment="Data from LB"
 crt:Label="Reference Range Upper Limit-Std Units"
>
 <cp01:DataUsed>
  <cp01:SingleDataReference>
   <ItemGroupRef ItemGroupOID="TABLE16" Mandatory="No"/>
  </cp01:SingleDataReference>
 </cp01:DataUsed>
</ItemDef>
<ItemDef OID="COL80" Name="LBSTNRLO"
 DataType="float"
 Length="8 "
 SASFieldName="LBSTNRLO"
 Origin="LB"
 Comment="Data from LB"
 crt:Label="Reference Range Lower Limit-Std Units"
>
 <cp01:DataUsed>
  <cp01:SingleDataReference>
   <ItemGroupRef ItemGroupOID="TABLE16" Mandatory="No"/>
  </cp01:SingleDataReference>
 </cp01:DataUsed>
</ItemDef>
<ItemDef OID="COL81" Name="LBSTRESC"
 DataType="text"
 Length="8 "
 SASFieldName="LBSTRESC"
 Origin="LB"
 Comment="Data from LB"
 crt:Label="Character Result/Finding in Std Format"
>
 <cp01:DataUsed>
  <cp01:SingleDataReference>
   <ItemGroupRef ItemGroupOID="TABLE16" Mandatory="No"/>
  </cp01:SingleDataReference>
 </cp01:DataUsed>
</ItemDef>
<ItemDef OID="COL82" Name="LBSTRESN"
 DataType="float"
 Length="8 "
 SASFieldName="LBSTRESN"
 Origin="LB"
 Comment="Data from LB"
 crt:Label="Numeric Result/Finding in Std Units"
>
 <cp01:DataUsed>
  <cp01:SingleDataReference>
   <ItemGroupRef ItemGroupOID="TABLE16" Mandatory="No"/>
  </cp01:SingleDataReference>
 </cp01:DataUsed>
</ItemDef>
<ItemDef OID="COL83" Name="LBSTRESU"
 DataType="text"
 Length="8 "
 SASFieldName="LBSTRESU"
 Origin="LB"
 Comment="Data from LB"
 crt:Label="Standard Units"
>
 <cp01:DataUsed>
  <cp01:SingleDataReference>
   <ItemGroupRef ItemGroupOID="TABLE16" Mandatory="No"/>
  </cp01:SingleDataReference>
 </cp01:DataUsed>
</ItemDef>
<ItemDef OID="COL84" Name="LBTEST"
 DataType="text"
 Length="38 "
 SASFieldName="LBTEST"
 Origin="LB"
 Comment="Data from LB"
 crt:Label="LAB Test or Examination Name"
>
 <CodeListRef CodeListOID="CODELISTC14"/>
 <cp01:DataUsed>
  <cp01:SingleDataReference>
   <ItemGroupRef ItemGroupOID="TABLE16" Mandatory="No"/>
  </cp01:SingleDataReference>
 </cp01:DataUsed>
</ItemDef>
<ItemDef OID="COL85" Name="LBTESTCD"
 DataType="text"
 Length="7 "
 SASFieldName="LBTESTCD"
 Origin="LB"
 Comment="Data from LB"
 crt:Label="LAB Test or Examination Short Name"
>
 <CodeListRef CodeListOID="CODELISTC14"/>
 <cp01:DataUsed>
  <cp01:SingleDataReference>
   <ItemGroupRef ItemGroupOID="TABLE16" Mandatory="No"/>
  </cp01:SingleDataReference>
 </cp01:DataUsed>
</ItemDef>
<ItemDef OID="COL86" Name="LBTMSHI"
 DataType="float"
 Length="8 "
 SASFieldName="LBTMSHI"
 Origin="created here"
 Comment="Data from ADLBC"
 crt:Label="Result Times Upper Limit of Normal"
>
 <cp01:DataUsed>
  <cp01:SingleDataReference>
   <ItemGroupRef ItemGroupOID="TABLE2" Mandatory="No"/>
  </cp01:SingleDataReference>
 </cp01:DataUsed>
</ItemDef>
<ItemDef OID="COL87" Name="LBTMSLO"
 DataType="float"
 Length="8 "
 SASFieldName="LBTMSLO"
 Origin="created here"
 Comment="Data from ADLBC"
 crt:Label="Result  Times Lower Limit of Normal"
>
 <cp01:DataUsed>
  <cp01:SingleDataReference>
   <ItemGroupRef ItemGroupOID="TABLE2" Mandatory="No"/>
  </cp01:SingleDataReference>
 </cp01:DataUsed>
</ItemDef>
<ItemDef OID="COL88" Name="LBTRFL"
 DataType="text"
 Length="1 "
 SASFieldName="LBTRFL"
 Origin="created here"
 Comment="Data from ADLBC"
 crt:Label="Result Abnormal, threshold range"
>
 <CodeListRef CodeListOID="CODELISTC16"/>
 <cp01:DataUsed>
  <cp01:SingleDataReference>
   <ItemGroupRef ItemGroupOID="TABLE2" Mandatory="No"/>
  </cp01:SingleDataReference>
 </cp01:DataUsed>
</ItemDef>
<ItemDef OID="COL89" Name="LBTRMXFL"
 DataType="text"
 Length="1 "
 SASFieldName="LBTRMXFL"
 Origin="created here"
 Comment="Data from ADLBC"
 crt:Label="Most Extreme, based on threshold range"
>
 <CodeListRef CodeListOID="CODELISTC31"/>
 <cp01:DataUsed>
  <cp01:SingleDataReference>
   <ItemGroupRef ItemGroupOID="TABLE2" Mandatory="No"/>
  </cp01:SingleDataReference>
 </cp01:DataUsed>
</ItemDef>
<ItemDef OID="COL90" Name="LBTRVAL"
 DataType="float"
 Length="8 "
 SASFieldName="LBTRVAL"
 Origin="created here"
 Comment="Data from ADLBC"
 crt:Label="Amount threshold Range"
>
 <cp01:DataUsed>
  <cp01:SingleDataReference>
   <ItemGroupRef ItemGroupOID="TABLE2" Mandatory="No"/>
  </cp01:SingleDataReference>
 </cp01:DataUsed>
</ItemDef>
<ItemDef OID="COL91" Name="LBTYPE"
 DataType="text"
 Length="5 "
 SASFieldName="LBTYPE"
 Origin="created here"
